"success","trial_type","trial_index","time_elapsed","internal_node_id","rt","response","subname","question_order","gender","varimages","baseimage","baseimagestr","baseimagestr2","stimulus","response_type","key_press","avg_frame_time","center_x","center_y"
"true","fullscreen","0","3338","0.0-0.0","","","","","","","","","","","","","","",""
"","survey-text","1","6818","0.0-1.0","3478","{""name"":""Ed""}","Ed","","","","","","","","","","","",""
"","survey-multi-choice","2","8461","0.0-2.0","1641","{""gender"":""Male""}","","[0]","Male","[{""firstImage"":""stimuli/Male/rcic_base_1_00001_inv.png"",""secondImage"":""stimuli/Male/rcic_base_1_00001_ori.png""},{""firstImage"":""stimuli/Male/rcic_base_1_00002_inv.png"",""secondImage"":""stimuli/Male/rcic_base_1_00002_ori.png""},{""firstImage"":""stimuli/Male/rcic_base_1_00003_inv.png"",""secondImage"":""stimuli/Male/rcic_base_1_00003_ori.png""},{""firstImage"":""stimuli/Male/rcic_base_1_00004_inv.png"",""secondImage"":""stimuli/Male/rcic_base_1_00004_ori.png""},{""firstImage"":""stimuli/Male/rcic_base_1_00005_inv.png"",""secondImage"":""stimuli/Male/rcic_base_1_00005_ori.png""},{""firstImage"":""stimuli/Male/rcic_base_1_00006_inv.png"",""secondImage"":""stimuli/Male/rcic_base_1_00006_ori.png""},{""firstImage"":""stimuli/Male/rcic_base_1_00007_inv.png"",""secondImage"":""stimuli/Male/rcic_base_1_00007_ori.png""},{""firstImage"":""stimuli/Male/rcic_base_1_00008_inv.png"",""secondImage"":""stimuli/Male/rcic_base_1_00008_ori.png""},{""firstImage"":""stimuli/Male/rcic_base_1_00009_inv.png"",""secondImage"":""stimuli/Male/rcic_base_1_00009_ori.png""},{""firstImage"":""stimuli/Male/rcic_base_1_00010_inv.png"",""secondImage"":""stimuli/Male/rcic_base_1_00010_ori.png""},{""firstImage"":""stimuli/Male/rcic_base_1_00011_inv.png"",""secondImage"":""stimuli/Male/rcic_base_1_00011_ori.png""},{""firstImage"":""stimuli/Male/rcic_base_1_00012_inv.png"",""secondImage"":""stimuli/Male/rcic_base_1_00012_ori.png""},{""firstImage"":""stimuli/Male/rcic_base_1_00013_inv.png"",""secondImage"":""stimuli/Male/rcic_base_1_00013_ori.png""},{""firstImage"":""stimuli/Male/rcic_base_1_00014_inv.png"",""secondImage"":""stimuli/Male/rcic_base_1_00014_ori.png""},{""firstImage"":""stimuli/Male/rcic_base_1_00015_inv.png"",""secondImage"":""stimuli/Male/rcic_base_1_00015_ori.png""},{""firstImage"":""stimuli/Male/rcic_base_1_00016_inv.png"",""secondImage"":""stimuli/Male/rcic_base_1_00016_ori.png""},{""firstImage"":""stimuli/Male/rcic_base_1_00017_inv.png"",""secondImage"":""stimuli/Male/rcic_base_1_00017_ori.png""},{""firstImage"":""stimuli/Male/rcic_base_1_00018_inv.png"",""secondImage"":""stimuli/Male/rcic_base_1_00018_ori.png""},{""firstImage"":""stimuli/Male/rcic_base_1_00019_inv.png"",""secondImage"":""stimuli/Male/rcic_base_1_00019_ori.png""},{""firstImage"":""stimuli/Male/rcic_base_1_00020_inv.png"",""secondImage"":""stimuli/Male/rcic_base_1_00020_ori.png""},{""firstImage"":""stimuli/Male/rcic_base_1_00021_inv.png"",""secondImage"":""stimuli/Male/rcic_base_1_00021_ori.png""},{""firstImage"":""stimuli/Male/rcic_base_1_00022_inv.png"",""secondImage"":""stimuli/Male/rcic_base_1_00022_ori.png""},{""firstImage"":""stimuli/Male/rcic_base_1_00023_inv.png"",""secondImage"":""stimuli/Male/rcic_base_1_00023_ori.png""},{""firstImage"":""stimuli/Male/rcic_base_1_00024_inv.png"",""secondImage"":""stimuli/Male/rcic_base_1_00024_ori.png""},{""firstImage"":""stimuli/Male/rcic_base_1_00025_inv.png"",""secondImage"":""stimuli/Male/rcic_base_1_00025_ori.png""},{""firstImage"":""stimuli/Male/rcic_base_1_00026_inv.png"",""secondImage"":""stimuli/Male/rcic_base_1_00026_ori.png""},{""firstImage"":""stimuli/Male/rcic_base_1_00027_inv.png"",""secondImage"":""stimuli/Male/rcic_base_1_00027_ori.png""},{""firstImage"":""stimuli/Male/rcic_base_1_00028_inv.png"",""secondImage"":""stimuli/Male/rcic_base_1_00028_ori.png""},{""firstImage"":""stimuli/Male/rcic_base_1_00029_inv.png"",""secondImage"":""stimuli/Male/rcic_base_1_00029_ori.png""},{""firstImage"":""stimuli/Male/rcic_base_1_00030_inv.png"",""secondImage"":""stimuli/Male/rcic_base_1_00030_ori.png""},{""firstImage"":""stimuli/Male/rcic_base_1_00031_inv.png"",""secondImage"":""stimuli/Male/rcic_base_1_00031_ori.png""},{""firstImage"":""stimuli/Male/rcic_base_1_00032_inv.png"",""secondImage"":""stimuli/Male/rcic_base_1_00032_ori.png""},{""firstImage"":""stimuli/Male/rcic_base_1_00033_inv.png"",""secondImage"":""stimuli/Male/rcic_base_1_00033_ori.png""},{""firstImage"":""stimuli/Male/rcic_base_1_00034_inv.png"",""secondImage"":""stimuli/Male/rcic_base_1_00034_ori.png""},{""firstImage"":""stimuli/Male/rcic_base_1_00035_inv.png"",""secondImage"":""stimuli/Male/rcic_base_1_00035_ori.png""},{""firstImage"":""stimuli/Male/rcic_base_1_00036_inv.png"",""secondImage"":""stimuli/Male/rcic_base_1_00036_ori.png""},{""firstImage"":""stimuli/Male/rcic_base_1_00037_inv.png"",""secondImage"":""stimuli/Male/rcic_base_1_00037_ori.png""},{""firstImage"":""stimuli/Male/rcic_base_1_00038_inv.png"",""secondImage"":""stimuli/Male/rcic_base_1_00038_ori.png""},{""firstImage"":""stimuli/Male/rcic_base_1_00039_inv.png"",""secondImage"":""stimuli/Male/rcic_base_1_00039_ori.png""},{""firstImage"":""stimuli/Male/rcic_base_1_00040_inv.png"",""secondImage"":""stimuli/Male/rcic_base_1_00040_ori.png""},{""firstImage"":""stimuli/Male/rcic_base_1_00041_inv.png"",""secondImage"":""stimuli/Male/rcic_base_1_00041_ori.png""},{""firstImage"":""stimuli/Male/rcic_base_1_00042_inv.png"",""secondImage"":""stimuli/Male/rcic_base_1_00042_ori.png""},{""firstImage"":""stimuli/Male/rcic_base_1_00043_inv.png"",""secondImage"":""stimuli/Male/rcic_base_1_00043_ori.png""},{""firstImage"":""stimuli/Male/rcic_base_1_00044_inv.png"",""secondImage"":""stimuli/Male/rcic_base_1_00044_ori.png""},{""firstImage"":""stimuli/Male/rcic_base_1_00045_inv.png"",""secondImage"":""stimuli/Male/rcic_base_1_00045_ori.png""},{""firstImage"":""stimuli/Male/rcic_base_1_00046_inv.png"",""secondImage"":""stimuli/Male/rcic_base_1_00046_ori.png""},{""firstImage"":""stimuli/Male/rcic_base_1_00047_inv.png"",""secondImage"":""stimuli/Male/rcic_base_1_00047_ori.png""},{""firstImage"":""stimuli/Male/rcic_base_1_00048_inv.png"",""secondImage"":""stimuli/Male/rcic_base_1_00048_ori.png""},{""firstImage"":""stimuli/Male/rcic_base_1_00049_inv.png"",""secondImage"":""stimuli/Male/rcic_base_1_00049_ori.png""},{""firstImage"":""stimuli/Male/rcic_base_1_00050_inv.png"",""secondImage"":""stimuli/Male/rcic_base_1_00050_ori.png""},{""firstImage"":""stimuli/Male/rcic_base_1_00051_inv.png"",""secondImage"":""stimuli/Male/rcic_base_1_00051_ori.png""},{""firstImage"":""stimuli/Male/rcic_base_1_00052_inv.png"",""secondImage"":""stimuli/Male/rcic_base_1_00052_ori.png""},{""firstImage"":""stimuli/Male/rcic_base_1_00053_inv.png"",""secondImage"":""stimuli/Male/rcic_base_1_00053_ori.png""},{""firstImage"":""stimuli/Male/rcic_base_1_00054_inv.png"",""secondImage"":""stimuli/Male/rcic_base_1_00054_ori.png""},{""firstImage"":""stimuli/Male/rcic_base_1_00055_inv.png"",""secondImage"":""stimuli/Male/rcic_base_1_00055_ori.png""},{""firstImage"":""stimuli/Male/rcic_base_1_00056_inv.png"",""secondImage"":""stimuli/Male/rcic_base_1_00056_ori.png""},{""firstImage"":""stimuli/Male/rcic_base_1_00057_inv.png"",""secondImage"":""stimuli/Male/rcic_base_1_00057_ori.png""},{""firstImage"":""stimuli/Male/rcic_base_1_00058_inv.png"",""secondImage"":""stimuli/Male/rcic_base_1_00058_ori.png""},{""firstImage"":""stimuli/Male/rcic_base_1_00059_inv.png"",""secondImage"":""stimuli/Male/rcic_base_1_00059_ori.png""},{""firstImage"":""stimuli/Male/rcic_base_1_00060_inv.png"",""secondImage"":""stimuli/Male/rcic_base_1_00060_ori.png""},{""firstImage"":""stimuli/Male/rcic_base_1_00061_inv.png"",""secondImage"":""stimuli/Male/rcic_base_1_00061_ori.png""},{""firstImage"":""stimuli/Male/rcic_base_1_00062_inv.png"",""secondImage"":""stimuli/Male/rcic_base_1_00062_ori.png""},{""firstImage"":""stimuli/Male/rcic_base_1_00063_inv.png"",""secondImage"":""stimuli/Male/rcic_base_1_00063_ori.png""},{""firstImage"":""stimuli/Male/rcic_base_1_00064_inv.png"",""secondImage"":""stimuli/Male/rcic_base_1_00064_ori.png""},{""firstImage"":""stimuli/Male/rcic_base_1_00065_inv.png"",""secondImage"":""stimuli/Male/rcic_base_1_00065_ori.png""},{""firstImage"":""stimuli/Male/rcic_base_1_00066_inv.png"",""secondImage"":""stimuli/Male/rcic_base_1_00066_ori.png""},{""firstImage"":""stimuli/Male/rcic_base_1_00067_inv.png"",""secondImage"":""stimuli/Male/rcic_base_1_00067_ori.png""},{""firstImage"":""stimuli/Male/rcic_base_1_00068_inv.png"",""secondImage"":""stimuli/Male/rcic_base_1_00068_ori.png""},{""firstImage"":""stimuli/Male/rcic_base_1_00069_inv.png"",""secondImage"":""stimuli/Male/rcic_base_1_00069_ori.png""},{""firstImage"":""stimuli/Male/rcic_base_1_00070_inv.png"",""secondImage"":""stimuli/Male/rcic_base_1_00070_ori.png""},{""firstImage"":""stimuli/Male/rcic_base_1_00071_inv.png"",""secondImage"":""stimuli/Male/rcic_base_1_00071_ori.png""},{""firstImage"":""stimuli/Male/rcic_base_1_00072_inv.png"",""secondImage"":""stimuli/Male/rcic_base_1_00072_ori.png""},{""firstImage"":""stimuli/Male/rcic_base_1_00073_inv.png"",""secondImage"":""stimuli/Male/rcic_base_1_00073_ori.png""},{""firstImage"":""stimuli/Male/rcic_base_1_00074_inv.png"",""secondImage"":""stimuli/Male/rcic_base_1_00074_ori.png""},{""firstImage"":""stimuli/Male/rcic_base_1_00075_inv.png"",""secondImage"":""stimuli/Male/rcic_base_1_00075_ori.png""},{""firstImage"":""stimuli/Male/rcic_base_1_00076_inv.png"",""secondImage"":""stimuli/Male/rcic_base_1_00076_ori.png""},{""firstImage"":""stimuli/Male/rcic_base_1_00077_inv.png"",""secondImage"":""stimuli/Male/rcic_base_1_00077_ori.png""},{""firstImage"":""stimuli/Male/rcic_base_1_00078_inv.png"",""secondImage"":""stimuli/Male/rcic_base_1_00078_ori.png""},{""firstImage"":""stimuli/Male/rcic_base_1_00079_inv.png"",""secondImage"":""stimuli/Male/rcic_base_1_00079_ori.png""},{""firstImage"":""stimuli/Male/rcic_base_1_00080_inv.png"",""secondImage"":""stimuli/Male/rcic_base_1_00080_ori.png""},{""firstImage"":""stimuli/Male/rcic_base_1_00081_inv.png"",""secondImage"":""stimuli/Male/rcic_base_1_00081_ori.png""},{""firstImage"":""stimuli/Male/rcic_base_1_00082_inv.png"",""secondImage"":""stimuli/Male/rcic_base_1_00082_ori.png""},{""firstImage"":""stimuli/Male/rcic_base_1_00083_inv.png"",""secondImage"":""stimuli/Male/rcic_base_1_00083_ori.png""},{""firstImage"":""stimuli/Male/rcic_base_1_00084_inv.png"",""secondImage"":""stimuli/Male/rcic_base_1_00084_ori.png""},{""firstImage"":""stimuli/Male/rcic_base_1_00085_inv.png"",""secondImage"":""stimuli/Male/rcic_base_1_00085_ori.png""},{""firstImage"":""stimuli/Male/rcic_base_1_00086_inv.png"",""secondImage"":""stimuli/Male/rcic_base_1_00086_ori.png""},{""firstImage"":""stimuli/Male/rcic_base_1_00087_inv.png"",""secondImage"":""stimuli/Male/rcic_base_1_00087_ori.png""},{""firstImage"":""stimuli/Male/rcic_base_1_00088_inv.png"",""secondImage"":""stimuli/Male/rcic_base_1_00088_ori.png""},{""firstImage"":""stimuli/Male/rcic_base_1_00089_inv.png"",""secondImage"":""stimuli/Male/rcic_base_1_00089_ori.png""},{""firstImage"":""stimuli/Male/rcic_base_1_00090_inv.png"",""secondImage"":""stimuli/Male/rcic_base_1_00090_ori.png""},{""firstImage"":""stimuli/Male/rcic_base_1_00091_inv.png"",""secondImage"":""stimuli/Male/rcic_base_1_00091_ori.png""},{""firstImage"":""stimuli/Male/rcic_base_1_00092_inv.png"",""secondImage"":""stimuli/Male/rcic_base_1_00092_ori.png""},{""firstImage"":""stimuli/Male/rcic_base_1_00093_inv.png"",""secondImage"":""stimuli/Male/rcic_base_1_00093_ori.png""},{""firstImage"":""stimuli/Male/rcic_base_1_00094_inv.png"",""secondImage"":""stimuli/Male/rcic_base_1_00094_ori.png""},{""firstImage"":""stimuli/Male/rcic_base_1_00095_inv.png"",""secondImage"":""stimuli/Male/rcic_base_1_00095_ori.png""},{""firstImage"":""stimuli/Male/rcic_base_1_00096_inv.png"",""secondImage"":""stimuli/Male/rcic_base_1_00096_ori.png""},{""firstImage"":""stimuli/Male/rcic_base_1_00097_inv.png"",""secondImage"":""stimuli/Male/rcic_base_1_00097_ori.png""},{""firstImage"":""stimuli/Male/rcic_base_1_00098_inv.png"",""secondImage"":""stimuli/Male/rcic_base_1_00098_ori.png""},{""firstImage"":""stimuli/Male/rcic_base_1_00099_inv.png"",""secondImage"":""stimuli/Male/rcic_base_1_00099_ori.png""},{""firstImage"":""stimuli/Male/rcic_base_1_00100_inv.png"",""secondImage"":""stimuli/Male/rcic_base_1_00100_ori.png""}]","base_image/base_Male.png","<p>Imagine this is your romantic partner, please remember this face. </p><div class='center'><img src='base_image/base_Male.png' align='middle'></img><p class='small'><strong>In each trial, two faces will show up, please select the one that looks like your partner the most.</strong></p></div><p>Press <strong>F</strong> to choose the left image, Press <strong>J</strong> to choose the right image</p><p>We have <strong>5 practice trials</strong> for you to get familiar with the task. Press start to proceed when you are ready.</p>","<p>Great, now you know the rule! This is a memory test, <strong>please remember your partner's face carefully, this image will not be shown again.</strong></p><div class='center'><img src='base_image/base_Male.png' align='middle'></img><p class='small'>For this pilot study, we have 100 trials, we really appreciate your time in doing this, it will take about 10 minutes. </p></div><p>Press <strong>F</strong> to choose the left image, Press <strong>J</strong> to choose the right image</p><p>Press start when you are ready.</p>","","","","","",""
"","html-button-response","3","73169","0.0-3.0","64325","0","","","","","","","","<p>Imagine this is your romantic partner, please remember this face. </p><div class='center'><img src='base_image/base_Male.png' align='middle'></img><p class='small'><strong>In each trial, two faces will show up, please select the one that looks like your partner the most.</strong></p></div><p>Press <strong>F</strong> to choose the left image, Press <strong>J</strong> to choose the right image</p><p>We have <strong>5 practice trials</strong> for you to get familiar with the task. Press start to proceed when you are ready.</p>","","","","",""
"","psychophysics","4","76105","0.0-4.0-0.0","2927","f","","","","","","","","","key","f","31.415290322580677","960","250"
"","psychophysics","5","81897","0.0-4.0-0.1","5782","f","","","","","","","","","key","f","31.16485945945944","960","250"
"","psychophysics","6","84978","0.0-4.0-0.2","3078","j","","","","","","","","","key","j","31.271081632652976","960","250"
"","psychophysics","7","90721","0.0-4.0-0.3","5740","j","","","","","","","","","key","j","31.218683060109292","960","250"
"","psychophysics","8","93905","0.0-4.0-0.4","3180","f","","","","","","","","","key","f","31.30340594059406","960","250"
"","html-button-response","9","115058","0.0-5.0","21151","0","","","","","","","","<p>Great, now you know the rule! This is a memory test, <strong>please remember your partner's face carefully, this image will not be shown again.</strong></p><div class='center'><img src='base_image/base_Male.png' align='middle'></img><p class='small'>For this pilot study, we have 100 trials, we really appreciate your time in doing this, it will take about 10 minutes. </p></div><p>Press <strong>F</strong> to choose the left image, Press <strong>J</strong> to choose the right image</p><p>Press start when you are ready.</p>","","","","",""
"","psychophysics","10","117857","0.0-6.0-0.0","2796","j","","","","","","","","","key","j","31.069544444444507","960","250"
"","psychophysics","11","119770","0.0-6.0-0.1","1910","j","","","","","","","","","key","j","31.33075000000002","960","250"
"","psychophysics","12","123185","0.0-6.0-0.2","3410","f","","","","","","","","","key","f","31.264444444444422","960","250"
"","psychophysics","13","125233","0.0-6.0-0.3","2045","j","","","","","","","","","key","j","31.410890624999865","960","250"
"","psychophysics","14","127697","0.0-6.0-0.4","2459","j","","","","","","","","","key","j","31.210282051282075","960","250"
"","psychophysics","15","130937","0.0-6.0-0.5","3236","j","","","","","","","","","key","j","31.284786407766976","960","250"
"","psychophysics","16","133833","0.0-6.0-0.6","2893","f","","","","","","","","","key","f","31.210307692307442","960","250"
"","psychophysics","17","136873","0.0-6.0-0.7","3036","f","","","","","","","","","key","f","31.229206185567087","960","250"
"","psychophysics","18","139793","0.0-6.0-0.8","2917","f","","","","","","","","","key","f","31.284119565217342","960","250"
"","psychophysics","19","141859","0.0-6.0-0.9","2061","f","","","","","","","","","key","f","31.24030769230807","960","250"
"","psychophysics","20","143409","0.0-6.0-0.10","1542","f","","","","","","","","","key","f","31.22016326530613","960","250"
"","psychophysics","21","145185","0.0-6.0-0.11","1773","j","","","","","","","","","key","j","31.342678571428614","960","250"
"","psychophysics","22","147513","0.0-6.0-0.12","2322","f","","","","","","","","","key","f","31.214972602739717","960","250"
"","psychophysics","23","149864","0.0-6.0-0.13","2348","f","","","","","","","","","key","f","31.024573333333247","960","250"
"","psychophysics","24","156105","0.0-6.0-0.14","6234","f","","","","","","","","","key","f","31.156452261306633","960","250"
"","psychophysics","25","159531","0.0-6.0-0.15","3422","f","","","","","","","","","key","f","31.246412844036666","960","250"
"","psychophysics","26","162449","0.0-6.0-0.16","2915","j","","","","","","","","","key","j","31.178543478260625","960","250"
"","psychophysics","27","164730","0.0-6.0-0.17","2278","f","","","","","","","","","key","f","31.202958904109476","960","250"
"","psychophysics","28","168968","0.0-6.0-0.18","4235","f","","","","","","","","","key","f","31.126170370370556","960","250"
"","psychophysics","29","170905","0.0-6.0-0.19","1933","f","","","","","","","","","key","f","31.040295081967432","960","250"
"","psychophysics","30","173874","0.0-6.0-0.20","2966","j","","","","","","","","","key","j","31.285063829787255","960","250"
"","psychophysics","31","176465","0.0-6.0-0.21","2587","j","","","","","","","","","key","j","31.16402439024369","960","250"
"","psychophysics","32","178680","0.0-6.0-0.22","2211","j","","","","","","","","","key","j","31.269214285714302","960","250"
"","psychophysics","33","180737","0.0-6.0-0.23","2053","j","","","","","","","","","key","j","31.24984615384601","960","250"
"","psychophysics","34","182729","0.0-6.0-0.24","1989","f","","","","","","","","","key","f","31.344677419354763","960","250"
"","psychophysics","35","184779","0.0-6.0-0.25","2046","f","","","","","","","","","key","f","31.195246153846025","960","250"
"","psychophysics","36","186329","0.0-6.0-0.26","1545","j","","","","","","","","","key","j","31.25897959183678","960","250"
"","psychophysics","37","189025","0.0-6.0-0.27","2692","j","","","","","","","","","key","j","31.251294117647237","960","250"
"","psychophysics","38","191610","0.0-6.0-0.28","2576","j","","","","","","","","","key","j","31.305682926829167","960","250"
"","psychophysics","39","193634","0.0-6.0-0.29","2018","f","","","","","","","","","key","f","31.25038095238103","960","250"
"","psychophysics","40","195578","0.0-6.0-0.30","1941","j","","","","","","","","","key","j","31.22324193548411","960","250"
"","psychophysics","41","197057","0.0-6.0-0.31","1476","f","","","","","","","","","key","f","29.2342244897956","960","250"
"","psychophysics","42","198450","0.0-6.0-0.32","1389","j","","","","","","","","","key","j","30.896340909090544","960","250"
"","psychophysics","43","199849","0.0-6.0-0.33","1395","f","","","","","","","","","key","f","31.34577272727223","960","250"
"","psychophysics","44","201153","0.0-6.0-0.34","1298","j","","","","","","","","","key","j","31.111658536584866","960","250"
"","psychophysics","45","202426","0.0-6.0-0.35","1269","f","","","","","","","","","key","f","31.316512820513125","960","250"
"","psychophysics","46","203938","0.0-6.0-0.36","1509","f","","","","","","","","","key","f","31.261520833333027","960","250"
"","psychophysics","47","205450","0.0-6.0-0.37","1509","f","","","","","","","","","key","f","31.206531914893507","960","250"
"","psychophysics","48","206970","0.0-6.0-0.38","1516","f","","","","","","","","","key","f","31.219249999999494","960","250"
"","psychophysics","49","208356","0.0-6.0-0.39","1382","f","","","","","","","","","key","f","31.208790697674484","960","250"
"","psychophysics","50","209858","0.0-6.0-0.40","1490","f","","","","","","","","","key","f","30.53183333333315","960","250"
"","psychophysics","51","211363","0.0-6.0-0.41","1502","f","","","","","","","","","key","f","31.152937499999705","960","250"
"","psychophysics","52","213226","0.0-6.0-0.42","1858","f","","","","","","","","","key","f","31.273879310344988","960","250"
"","psychophysics","53","214930","0.0-6.0-0.43","1700","f","","","","","","","","","key","f","31.26112962962954","960","250"
"","psychophysics","54","216954","0.0-6.0-0.44","2020","j","","","","","","","","","key","j","31.22165625000025","960","250"
"","psychophysics","55","218428","0.0-6.0-0.45","1470","f","","","","","","","","","key","f","31.267565217391088","960","250"
"","psychophysics","56","219938","0.0-6.0-0.46","1504","j","","","","","","","","","key","j","31.2825319148932","960","250"
"","psychophysics","57","221498","0.0-6.0-0.47","1556","f","","","","","","","","","key","f","31.180326530612454","960","250"
"","psychophysics","58","222953","0.0-6.0-0.48","1452","j","","","","","","","","","key","j","31.256673913043493","960","250"
"","psychophysics","59","224433","0.0-6.0-0.49","1476","j","","","","","","","","","key","j","31.320586956521804","960","250"
"","psychophysics","60","226537","0.0-6.0-0.50","2101","f","","","","","","","","","key","f","31.264333333333276","960","250"
"","psychophysics","61","227914","0.0-6.0-0.51","1374","f","","","","","","","","","key","f","31.34613953488351","960","250"
"","psychophysics","62","229546","0.0-6.0-0.52","1628","f","","","","","","","","","key","f","31.248529411764476","960","250"
"","psychophysics","63","231018","0.0-6.0-0.53","1468","f","","","","","","","","","key","f","31.254391304348246","960","250"
"","psychophysics","64","232657","0.0-6.0-0.54","1636","f","","","","","","","","","key","f","31.147942307692293","960","250"
"","psychophysics","65","234162","0.0-6.0-0.55","1500","f","","","","","","","","","key","f","31.213531914893462","960","250"
"","psychophysics","66","235554","0.0-6.0-0.56","1389","j","","","","","","","","","key","j","31.28849999999974","960","250"
"","psychophysics","67","237050","0.0-6.0-0.57","1491","f","","","","","","","","","key","f","31.37802173913034","960","250"
"","psychophysics","68","238586","0.0-6.0-0.58","1533","f","","","","","","","","","key","f","31.38558333333337","960","250"
"","psychophysics","69","240017","0.0-6.0-0.59","1425","f","","","","","","","","","key","f","31.276288888888665","960","250"
"","psychophysics","70","241273","0.0-6.0-0.60","1252","f","","","","","","","","","key","f","31.13055000000022","960","250"
"","psychophysics","71","242748","0.0-6.0-0.61","1471","f","","","","","","","","","key","f","31.152456521738635","960","250"
"","psychophysics","72","244138","0.0-6.0-0.62","1382","j","","","","","","","","","key","j","31.130409090909367","960","250"
"","psychophysics","73","245410","0.0-6.0-0.63","1268","f","","","","","","","","","key","f","31.326000000000185","960","250"
"","psychophysics","74","246530","0.0-6.0-0.64","1116","j","","","","","","","","","key","j","31.258457142857203","960","250"
"","psychophysics","75","247706","0.0-6.0-0.65","1170","j","","","","","","","","","key","j","31.26070270270292","960","250"
"","psychophysics","76","248882","0.0-6.0-0.66","1172","j","","","","","","","","","key","j","31.491222222221648","960","250"
"","psychophysics","77","249953","0.0-6.0-0.67","1068","j","","","","","","","","","key","j","31.342515151515588","960","250"
"","psychophysics","78","251073","0.0-6.0-0.68","1117","j","","","","","","","","","key","j","31.232085714285496","960","250"
"","psychophysics","79","252241","0.0-6.0-0.69","1163","f","","","","","","","","","key","f","31.3547777777777","960","250"
"","psychophysics","80","253300","0.0-6.0-0.70","1052","f","","","","","","","","","key","f","31.163727272727886","960","250"
"","psychophysics","81","254418","0.0-6.0-0.71","1115","f","","","","","","","","","key","f","30.032108108107963","960","250"
"","psychophysics","82","255346","0.0-6.0-0.72","923","f","","","","","","","","","key","f","31.34121428571442","960","250"
"","psychophysics","83","256426","0.0-6.0-0.73","1076","f","","","","","","","","","key","f","31.171470588234918","960","250"
"","psychophysics","84","258162","0.0-6.0-0.74","1732","j","","","","","","","","","key","j","31.224944444444393","960","250"
"","psychophysics","85","259049","0.0-6.0-0.75","882","j","","","","","","","","","key","j","31.29082142857182","960","250"
"","psychophysics","86","259897","0.0-6.0-0.76","843","j","","","","","","","","","key","j","31.28896153846066","960","250"
"","psychophysics","87","260794","0.0-6.0-0.77","889","j","","","","","","","","","key","j","31.134464285714785","960","250"
"","psychophysics","88","261609","0.0-6.0-0.78","811","f","","","","","","","","","key","f","31.25719999999972","960","250"
"","psychophysics","89","262459","0.0-6.0-0.79","845","j","","","","","","","","","key","j","31.175038461537603","960","250"
"","psychophysics","90","263305","0.0-6.0-0.80","838","f","","","","","","","","","key","f","31.452615384614685","960","250"
"","psychophysics","91","264193","0.0-6.0-0.81","883","j","","","","","","","","","key","j","31.24629629629716","960","250"
"","psychophysics","92","272714","0.0-6.0-0.82","8517","j","","","","","","","","","key","j","31.2851176470587","960","250"
"","psychophysics","93","274217","0.0-6.0-0.83","1499","j","","","","","","","","","key","j","31.35487234042561","960","250"
"","psychophysics","94","275473","0.0-6.0-0.84","1251","j","","","","","","","","","key","j","31.293589743590044","960","250"
"","psychophysics","95","276841","0.0-6.0-0.85","1363","j","","","","","","","","","key","j","31.397238095238293","960","250"
"","psychophysics","96","278409","0.0-6.0-0.86","1564","j","","","","","","","","","key","j","31.27548000000068","960","250"
"","psychophysics","97","279529","0.0-6.0-0.87","1115","j","","","","","","","","","key","j","31.236911764705678","960","250"
"","psychophysics","98","280369","0.0-6.0-0.88","834","j","","","","","","","","","key","j","31.409153846152968","960","250"
"","psychophysics","99","281217","0.0-6.0-0.89","844","j","","","","","","","","","key","j","31.218000000000195","960","250"
"","psychophysics","100","282041","0.0-6.0-0.90","819","j","","","","","","","","","key","j","31.181307692306852","960","250"
"","psychophysics","101","282874","0.0-6.0-0.91","828","j","","","","","","","","","key","j","31.13492307692426","960","250"
"","psychophysics","102","283721","0.0-6.0-0.92","842","j","","","","","","","","","key","j","31.429800000002142","960","250"
"","psychophysics","103","284547","0.0-6.0-0.93","819","j","","","","","","","","","key","j","31.13542307692338","960","250"
"","psychophysics","104","285353","0.0-6.0-0.94","801","j","","","","","","","","","key","j","31.18719999999972","960","250"
"","html-button-response","105","288687","0.0-7.0","3331","0","","","","","","","","<p>Thank you so much for your participation!</p>","","","","",""
