"success","trial_type","trial_index","time_elapsed","internal_node_id","rt","response","subname","question_order","gender","varimages","baseimage","baseimagestr","baseimagestr2","stimulus","response_type","key_press","avg_frame_time","center_x","center_y"
"true","fullscreen","0","2806","0.0-0.0","","","","","","","","","","","","","","",""
"","survey-text","1","10754","0.0-1.0","7941","{""name"":""Hanna (IRL)""}","Hanna (IRL)","","","","","","","","","","","",""
"","survey-multi-choice","2","12453","0.0-2.0","1697","{""gender"":""Female""}","","[0]","Female","[{""firstImage"":""stimuli/Female/rcic_base_1_00001_inv.png"",""secondImage"":""stimuli/Female/rcic_base_1_00001_ori.png""},{""firstImage"":""stimuli/Female/rcic_base_1_00002_inv.png"",""secondImage"":""stimuli/Female/rcic_base_1_00002_ori.png""},{""firstImage"":""stimuli/Female/rcic_base_1_00003_inv.png"",""secondImage"":""stimuli/Female/rcic_base_1_00003_ori.png""},{""firstImage"":""stimuli/Female/rcic_base_1_00004_inv.png"",""secondImage"":""stimuli/Female/rcic_base_1_00004_ori.png""},{""firstImage"":""stimuli/Female/rcic_base_1_00005_inv.png"",""secondImage"":""stimuli/Female/rcic_base_1_00005_ori.png""},{""firstImage"":""stimuli/Female/rcic_base_1_00006_inv.png"",""secondImage"":""stimuli/Female/rcic_base_1_00006_ori.png""},{""firstImage"":""stimuli/Female/rcic_base_1_00007_inv.png"",""secondImage"":""stimuli/Female/rcic_base_1_00007_ori.png""},{""firstImage"":""stimuli/Female/rcic_base_1_00008_inv.png"",""secondImage"":""stimuli/Female/rcic_base_1_00008_ori.png""},{""firstImage"":""stimuli/Female/rcic_base_1_00009_inv.png"",""secondImage"":""stimuli/Female/rcic_base_1_00009_ori.png""},{""firstImage"":""stimuli/Female/rcic_base_1_00010_inv.png"",""secondImage"":""stimuli/Female/rcic_base_1_00010_ori.png""},{""firstImage"":""stimuli/Female/rcic_base_1_00011_inv.png"",""secondImage"":""stimuli/Female/rcic_base_1_00011_ori.png""},{""firstImage"":""stimuli/Female/rcic_base_1_00012_inv.png"",""secondImage"":""stimuli/Female/rcic_base_1_00012_ori.png""},{""firstImage"":""stimuli/Female/rcic_base_1_00013_inv.png"",""secondImage"":""stimuli/Female/rcic_base_1_00013_ori.png""},{""firstImage"":""stimuli/Female/rcic_base_1_00014_inv.png"",""secondImage"":""stimuli/Female/rcic_base_1_00014_ori.png""},{""firstImage"":""stimuli/Female/rcic_base_1_00015_inv.png"",""secondImage"":""stimuli/Female/rcic_base_1_00015_ori.png""},{""firstImage"":""stimuli/Female/rcic_base_1_00016_inv.png"",""secondImage"":""stimuli/Female/rcic_base_1_00016_ori.png""},{""firstImage"":""stimuli/Female/rcic_base_1_00017_inv.png"",""secondImage"":""stimuli/Female/rcic_base_1_00017_ori.png""},{""firstImage"":""stimuli/Female/rcic_base_1_00018_inv.png"",""secondImage"":""stimuli/Female/rcic_base_1_00018_ori.png""},{""firstImage"":""stimuli/Female/rcic_base_1_00019_inv.png"",""secondImage"":""stimuli/Female/rcic_base_1_00019_ori.png""},{""firstImage"":""stimuli/Female/rcic_base_1_00020_inv.png"",""secondImage"":""stimuli/Female/rcic_base_1_00020_ori.png""},{""firstImage"":""stimuli/Female/rcic_base_1_00021_inv.png"",""secondImage"":""stimuli/Female/rcic_base_1_00021_ori.png""},{""firstImage"":""stimuli/Female/rcic_base_1_00022_inv.png"",""secondImage"":""stimuli/Female/rcic_base_1_00022_ori.png""},{""firstImage"":""stimuli/Female/rcic_base_1_00023_inv.png"",""secondImage"":""stimuli/Female/rcic_base_1_00023_ori.png""},{""firstImage"":""stimuli/Female/rcic_base_1_00024_inv.png"",""secondImage"":""stimuli/Female/rcic_base_1_00024_ori.png""},{""firstImage"":""stimuli/Female/rcic_base_1_00025_inv.png"",""secondImage"":""stimuli/Female/rcic_base_1_00025_ori.png""},{""firstImage"":""stimuli/Female/rcic_base_1_00026_inv.png"",""secondImage"":""stimuli/Female/rcic_base_1_00026_ori.png""},{""firstImage"":""stimuli/Female/rcic_base_1_00027_inv.png"",""secondImage"":""stimuli/Female/rcic_base_1_00027_ori.png""},{""firstImage"":""stimuli/Female/rcic_base_1_00028_inv.png"",""secondImage"":""stimuli/Female/rcic_base_1_00028_ori.png""},{""firstImage"":""stimuli/Female/rcic_base_1_00029_inv.png"",""secondImage"":""stimuli/Female/rcic_base_1_00029_ori.png""},{""firstImage"":""stimuli/Female/rcic_base_1_00030_inv.png"",""secondImage"":""stimuli/Female/rcic_base_1_00030_ori.png""},{""firstImage"":""stimuli/Female/rcic_base_1_00031_inv.png"",""secondImage"":""stimuli/Female/rcic_base_1_00031_ori.png""},{""firstImage"":""stimuli/Female/rcic_base_1_00032_inv.png"",""secondImage"":""stimuli/Female/rcic_base_1_00032_ori.png""},{""firstImage"":""stimuli/Female/rcic_base_1_00033_inv.png"",""secondImage"":""stimuli/Female/rcic_base_1_00033_ori.png""},{""firstImage"":""stimuli/Female/rcic_base_1_00034_inv.png"",""secondImage"":""stimuli/Female/rcic_base_1_00034_ori.png""},{""firstImage"":""stimuli/Female/rcic_base_1_00035_inv.png"",""secondImage"":""stimuli/Female/rcic_base_1_00035_ori.png""},{""firstImage"":""stimuli/Female/rcic_base_1_00036_inv.png"",""secondImage"":""stimuli/Female/rcic_base_1_00036_ori.png""},{""firstImage"":""stimuli/Female/rcic_base_1_00037_inv.png"",""secondImage"":""stimuli/Female/rcic_base_1_00037_ori.png""},{""firstImage"":""stimuli/Female/rcic_base_1_00038_inv.png"",""secondImage"":""stimuli/Female/rcic_base_1_00038_ori.png""},{""firstImage"":""stimuli/Female/rcic_base_1_00039_inv.png"",""secondImage"":""stimuli/Female/rcic_base_1_00039_ori.png""},{""firstImage"":""stimuli/Female/rcic_base_1_00040_inv.png"",""secondImage"":""stimuli/Female/rcic_base_1_00040_ori.png""},{""firstImage"":""stimuli/Female/rcic_base_1_00041_inv.png"",""secondImage"":""stimuli/Female/rcic_base_1_00041_ori.png""},{""firstImage"":""stimuli/Female/rcic_base_1_00042_inv.png"",""secondImage"":""stimuli/Female/rcic_base_1_00042_ori.png""},{""firstImage"":""stimuli/Female/rcic_base_1_00043_inv.png"",""secondImage"":""stimuli/Female/rcic_base_1_00043_ori.png""},{""firstImage"":""stimuli/Female/rcic_base_1_00044_inv.png"",""secondImage"":""stimuli/Female/rcic_base_1_00044_ori.png""},{""firstImage"":""stimuli/Female/rcic_base_1_00045_inv.png"",""secondImage"":""stimuli/Female/rcic_base_1_00045_ori.png""},{""firstImage"":""stimuli/Female/rcic_base_1_00046_inv.png"",""secondImage"":""stimuli/Female/rcic_base_1_00046_ori.png""},{""firstImage"":""stimuli/Female/rcic_base_1_00047_inv.png"",""secondImage"":""stimuli/Female/rcic_base_1_00047_ori.png""},{""firstImage"":""stimuli/Female/rcic_base_1_00048_inv.png"",""secondImage"":""stimuli/Female/rcic_base_1_00048_ori.png""},{""firstImage"":""stimuli/Female/rcic_base_1_00049_inv.png"",""secondImage"":""stimuli/Female/rcic_base_1_00049_ori.png""},{""firstImage"":""stimuli/Female/rcic_base_1_00050_inv.png"",""secondImage"":""stimuli/Female/rcic_base_1_00050_ori.png""},{""firstImage"":""stimuli/Female/rcic_base_1_00051_inv.png"",""secondImage"":""stimuli/Female/rcic_base_1_00051_ori.png""},{""firstImage"":""stimuli/Female/rcic_base_1_00052_inv.png"",""secondImage"":""stimuli/Female/rcic_base_1_00052_ori.png""},{""firstImage"":""stimuli/Female/rcic_base_1_00053_inv.png"",""secondImage"":""stimuli/Female/rcic_base_1_00053_ori.png""},{""firstImage"":""stimuli/Female/rcic_base_1_00054_inv.png"",""secondImage"":""stimuli/Female/rcic_base_1_00054_ori.png""},{""firstImage"":""stimuli/Female/rcic_base_1_00055_inv.png"",""secondImage"":""stimuli/Female/rcic_base_1_00055_ori.png""},{""firstImage"":""stimuli/Female/rcic_base_1_00056_inv.png"",""secondImage"":""stimuli/Female/rcic_base_1_00056_ori.png""},{""firstImage"":""stimuli/Female/rcic_base_1_00057_inv.png"",""secondImage"":""stimuli/Female/rcic_base_1_00057_ori.png""},{""firstImage"":""stimuli/Female/rcic_base_1_00058_inv.png"",""secondImage"":""stimuli/Female/rcic_base_1_00058_ori.png""},{""firstImage"":""stimuli/Female/rcic_base_1_00059_inv.png"",""secondImage"":""stimuli/Female/rcic_base_1_00059_ori.png""},{""firstImage"":""stimuli/Female/rcic_base_1_00060_inv.png"",""secondImage"":""stimuli/Female/rcic_base_1_00060_ori.png""},{""firstImage"":""stimuli/Female/rcic_base_1_00061_inv.png"",""secondImage"":""stimuli/Female/rcic_base_1_00061_ori.png""},{""firstImage"":""stimuli/Female/rcic_base_1_00062_inv.png"",""secondImage"":""stimuli/Female/rcic_base_1_00062_ori.png""},{""firstImage"":""stimuli/Female/rcic_base_1_00063_inv.png"",""secondImage"":""stimuli/Female/rcic_base_1_00063_ori.png""},{""firstImage"":""stimuli/Female/rcic_base_1_00064_inv.png"",""secondImage"":""stimuli/Female/rcic_base_1_00064_ori.png""},{""firstImage"":""stimuli/Female/rcic_base_1_00065_inv.png"",""secondImage"":""stimuli/Female/rcic_base_1_00065_ori.png""},{""firstImage"":""stimuli/Female/rcic_base_1_00066_inv.png"",""secondImage"":""stimuli/Female/rcic_base_1_00066_ori.png""},{""firstImage"":""stimuli/Female/rcic_base_1_00067_inv.png"",""secondImage"":""stimuli/Female/rcic_base_1_00067_ori.png""},{""firstImage"":""stimuli/Female/rcic_base_1_00068_inv.png"",""secondImage"":""stimuli/Female/rcic_base_1_00068_ori.png""},{""firstImage"":""stimuli/Female/rcic_base_1_00069_inv.png"",""secondImage"":""stimuli/Female/rcic_base_1_00069_ori.png""},{""firstImage"":""stimuli/Female/rcic_base_1_00070_inv.png"",""secondImage"":""stimuli/Female/rcic_base_1_00070_ori.png""},{""firstImage"":""stimuli/Female/rcic_base_1_00071_inv.png"",""secondImage"":""stimuli/Female/rcic_base_1_00071_ori.png""},{""firstImage"":""stimuli/Female/rcic_base_1_00072_inv.png"",""secondImage"":""stimuli/Female/rcic_base_1_00072_ori.png""},{""firstImage"":""stimuli/Female/rcic_base_1_00073_inv.png"",""secondImage"":""stimuli/Female/rcic_base_1_00073_ori.png""},{""firstImage"":""stimuli/Female/rcic_base_1_00074_inv.png"",""secondImage"":""stimuli/Female/rcic_base_1_00074_ori.png""},{""firstImage"":""stimuli/Female/rcic_base_1_00075_inv.png"",""secondImage"":""stimuli/Female/rcic_base_1_00075_ori.png""},{""firstImage"":""stimuli/Female/rcic_base_1_00076_inv.png"",""secondImage"":""stimuli/Female/rcic_base_1_00076_ori.png""},{""firstImage"":""stimuli/Female/rcic_base_1_00077_inv.png"",""secondImage"":""stimuli/Female/rcic_base_1_00077_ori.png""},{""firstImage"":""stimuli/Female/rcic_base_1_00078_inv.png"",""secondImage"":""stimuli/Female/rcic_base_1_00078_ori.png""},{""firstImage"":""stimuli/Female/rcic_base_1_00079_inv.png"",""secondImage"":""stimuli/Female/rcic_base_1_00079_ori.png""},{""firstImage"":""stimuli/Female/rcic_base_1_00080_inv.png"",""secondImage"":""stimuli/Female/rcic_base_1_00080_ori.png""},{""firstImage"":""stimuli/Female/rcic_base_1_00081_inv.png"",""secondImage"":""stimuli/Female/rcic_base_1_00081_ori.png""},{""firstImage"":""stimuli/Female/rcic_base_1_00082_inv.png"",""secondImage"":""stimuli/Female/rcic_base_1_00082_ori.png""},{""firstImage"":""stimuli/Female/rcic_base_1_00083_inv.png"",""secondImage"":""stimuli/Female/rcic_base_1_00083_ori.png""},{""firstImage"":""stimuli/Female/rcic_base_1_00084_inv.png"",""secondImage"":""stimuli/Female/rcic_base_1_00084_ori.png""},{""firstImage"":""stimuli/Female/rcic_base_1_00085_inv.png"",""secondImage"":""stimuli/Female/rcic_base_1_00085_ori.png""},{""firstImage"":""stimuli/Female/rcic_base_1_00086_inv.png"",""secondImage"":""stimuli/Female/rcic_base_1_00086_ori.png""},{""firstImage"":""stimuli/Female/rcic_base_1_00087_inv.png"",""secondImage"":""stimuli/Female/rcic_base_1_00087_ori.png""},{""firstImage"":""stimuli/Female/rcic_base_1_00088_inv.png"",""secondImage"":""stimuli/Female/rcic_base_1_00088_ori.png""},{""firstImage"":""stimuli/Female/rcic_base_1_00089_inv.png"",""secondImage"":""stimuli/Female/rcic_base_1_00089_ori.png""},{""firstImage"":""stimuli/Female/rcic_base_1_00090_inv.png"",""secondImage"":""stimuli/Female/rcic_base_1_00090_ori.png""},{""firstImage"":""stimuli/Female/rcic_base_1_00091_inv.png"",""secondImage"":""stimuli/Female/rcic_base_1_00091_ori.png""},{""firstImage"":""stimuli/Female/rcic_base_1_00092_inv.png"",""secondImage"":""stimuli/Female/rcic_base_1_00092_ori.png""},{""firstImage"":""stimuli/Female/rcic_base_1_00093_inv.png"",""secondImage"":""stimuli/Female/rcic_base_1_00093_ori.png""},{""firstImage"":""stimuli/Female/rcic_base_1_00094_inv.png"",""secondImage"":""stimuli/Female/rcic_base_1_00094_ori.png""},{""firstImage"":""stimuli/Female/rcic_base_1_00095_inv.png"",""secondImage"":""stimuli/Female/rcic_base_1_00095_ori.png""},{""firstImage"":""stimuli/Female/rcic_base_1_00096_inv.png"",""secondImage"":""stimuli/Female/rcic_base_1_00096_ori.png""},{""firstImage"":""stimuli/Female/rcic_base_1_00097_inv.png"",""secondImage"":""stimuli/Female/rcic_base_1_00097_ori.png""},{""firstImage"":""stimuli/Female/rcic_base_1_00098_inv.png"",""secondImage"":""stimuli/Female/rcic_base_1_00098_ori.png""},{""firstImage"":""stimuli/Female/rcic_base_1_00099_inv.png"",""secondImage"":""stimuli/Female/rcic_base_1_00099_ori.png""},{""firstImage"":""stimuli/Female/rcic_base_1_00100_inv.png"",""secondImage"":""stimuli/Female/rcic_base_1_00100_ori.png""}]","base_image/base_Female.png","<p>Imagine this is your romantic partner, please remember this face. </p><div class='center'><img src='base_image/base_Female.png' align='middle'></img><p class='small'><strong>In each trial, two faces will show up, please select the one that looks like your partner the most.</strong></p></div><p>Press <strong>F</strong> to choose the left image, Press <strong>J</strong> to choose the right image</p><p>We have <strong>5 practice trials</strong> for you to get familiar with the task. Press start to proceed when you are ready.</p>","<p>Great, now you know the rule! This is a memory test, <strong>please remember your partner's face carefully, this image will not be shown again.</strong></p><div class='center'><img src='base_image/base_Female.png' align='middle'></img><p class='small'>For this pilot study, we have 100 trials, we really appreciate your time in doing this, it will take about 10 minutes. </p></div><p>Press <strong>F</strong> to choose the left image, Press <strong>J</strong> to choose the right image</p><p>Press start when you are ready.</p>","","","","","",""
"","html-button-response","3","42970","0.0-3.0","30060","0","","","","","","","","<p>Imagine this is your romantic partner, please remember this face. </p><div class='center'><img src='base_image/base_Female.png' align='middle'></img><p class='small'><strong>In each trial, two faces will show up, please select the one that looks like your partner the most.</strong></p></div><p>Press <strong>F</strong> to choose the left image, Press <strong>J</strong> to choose the right image</p><p>We have <strong>5 practice trials</strong> for you to get familiar with the task. Press start to proceed when you are ready.</p>","","","","",""
"","psychophysics","4","47145","0.0-4.0-0.0","4159","f","","","","","","","","","key","f","16.666","720","250"
"","psychophysics","5","49348","0.0-4.0-0.1","2193","f","","","","","","","","","key","f","16.66600000000003","720","250"
"","psychophysics","6","110310","0.0-4.0-0.2","60956","f","","","","","","","","","key","f","16.666","720","250"
"","psychophysics","7","113343","0.0-4.0-0.3","3023","f","","","","","","","","","key","f","16.666000000000025","720","250"
"","psychophysics","8","115979","0.0-4.0-0.4","2624","j","","","","","","","","","key","j","16.666000000000018","720","250"
"","html-button-response","9","125619","0.0-5.0","9635","0","","","","","","","","<p>Great, now you know the rule! This is a memory test, <strong>please remember your partner's face carefully, this image will not be shown again.</strong></p><div class='center'><img src='base_image/base_Female.png' align='middle'></img><p class='small'>For this pilot study, we have 100 trials, we really appreciate your time in doing this, it will take about 10 minutes. </p></div><p>Press <strong>F</strong> to choose the left image, Press <strong>J</strong> to choose the right image</p><p>Press start when you are ready.</p>","","","","",""
"","psychophysics","10","127995","0.0-6.0-0.0","2368","j","","","","","","","","","key","j","16.665999999999983","720","250"
"","psychophysics","11","133651","0.0-6.0-0.1","5646","f","","","","","","","","","key","f","16.66600000000002","720","250"
"","psychophysics","12","137976","0.0-6.0-0.2","4318","f","","","","","","","","","key","f","16.66599999999991","720","250"
"","psychophysics","13","141037","0.0-6.0-0.3","3051","f","","","","","","","","","key","f","16.665999999999997","720","250"
"","psychophysics","14","143129","0.0-6.0-0.4","2084","j","","","","","","","","","key","j","16.666","720","250"
"","psychophysics","15","144721","0.0-6.0-0.5","1578","f","","","","","","","","","key","f","16.665999999999915","720","250"
"","psychophysics","16","147821","0.0-6.0-0.6","3092","j","","","","","","","","","key","j","16.665999999999954","720","250"
"","psychophysics","17","151442","0.0-6.0-0.7","3610","j","","","","","","","","","key","j","16.66600000000012","720","250"
"","psychophysics","18","154406","0.0-6.0-0.8","2959","f","","","","","","","","","key","f","16.66599999999992","720","250"
"","psychophysics","19","156651","0.0-6.0-0.9","2233","j","","","","","","","","","key","j","16.666000000000047","720","250"
"","psychophysics","20","158710","0.0-6.0-0.10","2051","j","","","","","","","","","key","j","16.666000000000043","720","250"
"","psychophysics","21","161144","0.0-6.0-0.11","2424","j","","","","","","","","","key","j","16.666000000000047","720","250"
"","psychophysics","22","163440","0.0-6.0-0.12","2290","f","","","","","","","","","key","f","16.66599999999999","720","250"
"","psychophysics","23","166926","0.0-6.0-0.13","3474","f","","","","","","","","","key","f","16.665999999999958","720","250"
"","psychophysics","24","168663","0.0-6.0-0.14","1732","j","","","","","","","","","key","j","16.665999999999983","720","250"
"","psychophysics","25","171104","0.0-6.0-0.15","2430","f","","","","","","","","","key","f","16.665999999999848","720","250"
"","psychophysics","26","173989","0.0-6.0-0.16","2883","f","","","","","","","","","key","f","16.666000000000132","720","250"
"","psychophysics","27","175775","0.0-6.0-0.17","1780","f","","","","","","","","","key","f","16.66599999999991","720","250"
"","psychophysics","28","179778","0.0-6.0-0.18","3998","f","","","","","","","","","key","f","16.665999999999997","720","250"
"","psychophysics","29","181471","0.0-6.0-0.19","1681","f","","","","","","","","","key","f","16.666000000000032","720","250"
"","psychophysics","30","183770","0.0-6.0-0.20","2295","j","","","","","","","","","key","j","16.666000000000007","720","250"
"","psychophysics","31","186003","0.0-6.0-0.21","2222","j","","","","","","","","","key","j","16.666000000000064","720","250"
"","psychophysics","32","192760","0.0-6.0-0.22","6752","f","","","","","","","","","key","f","16.666000000000025","720","250"
"","psychophysics","33","194526","0.0-6.0-0.23","1753","j","","","","","","","","","key","j","16.665999999999933","720","250"
"","psychophysics","34","196459","0.0-6.0-0.24","1927","j","","","","","","","","","key","j","16.66599999999997","720","250"
"","psychophysics","35","199649","0.0-6.0-0.25","3182","f","","","","","","","","","key","f","16.666000000000043","720","250"
"","psychophysics","36","201475","0.0-6.0-0.26","1820","f","","","","","","","","","key","f","16.66600000000011","720","250"
"","psychophysics","37","203538","0.0-6.0-0.27","2052","j","","","","","","","","","key","j","16.666000000000043","720","250"
"","psychophysics","38","205737","0.0-6.0-0.28","2194","j","","","","","","","","","key","j","16.665999999999883","720","250"
"","psychophysics","39","207226","0.0-6.0-0.29","1479","f","","","","","","","","","key","f","16.666000000000086","720","250"
"","psychophysics","40","211683","0.0-6.0-0.30","4450","f","","","","","","","","","key","f","16.666000000000064","720","250"
"","psychophysics","41","213206","0.0-6.0-0.31","1513","f","","","","","","","","","key","f","16.665999999999997","720","250"
"","psychophysics","42","216841","0.0-6.0-0.32","3629","f","","","","","","","","","key","f","16.665999999999986","720","250"
"","psychophysics","43","218770","0.0-6.0-0.33","1919","f","","","","","","","","","key","f","16.66599999999997","720","250"
"","psychophysics","44","222385","0.0-6.0-0.34","3609","j","","","","","","","","","key","j","16.66600000000001","720","250"
"","psychophysics","45","224284","0.0-6.0-0.35","1887","f","","","","","","","","","key","f","16.666000000000015","720","250"
"","psychophysics","46","225804","0.0-6.0-0.36","1514","j","","","","","","","","","key","j","16.665999999999997","720","250"
"","psychophysics","47","228254","0.0-6.0-0.37","2440","j","","","","","","","","","key","j","16.66600000000003","720","250"
"","psychophysics","48","230085","0.0-6.0-0.38","1826","f","","","","","","","","","key","f","16.66600000000011","720","250"
"","psychophysics","49","232312","0.0-6.0-0.39","2217","j","","","","","","","","","key","j","16.666000000000086","720","250"
"","psychophysics","50","234454","0.0-6.0-0.40","2135","f","","","","","","","","","key","f","16.66599999999994","720","250"
"","psychophysics","51","236027","0.0-6.0-0.41","1563","j","","","","","","","","","key","j","16.665999999999944","720","250"
"","psychophysics","52","237593","0.0-6.0-0.42","1561","j","","","","","","","","","key","j","16.665999999999944","720","250"
"","psychophysics","53","241667","0.0-6.0-0.43","4062","f","","","","","","","","","key","f","16.666000000000064","720","250"
"","psychophysics","54","245833","0.0-6.0-0.44","4161","f","","","","","","","","","key","f","16.66600000000002","720","250"
"","psychophysics","55","247110","0.0-6.0-0.45","1265","f","","","","","","","","","key","f","16.66600000000012","720","250"
"","psychophysics","56","249135","0.0-6.0-0.46","2023","j","","","","","","","","","key","j","16.665999999999844","720","250"
"","psychophysics","57","250593","0.0-6.0-0.47","1446","j","","","","","","","","","key","j","16.666000000000146","720","250"
"","psychophysics","58","253199","0.0-6.0-0.48","2602","f","","","","","","","","","key","f","16.666000000000068","720","250"
"","psychophysics","59","255398","0.0-6.0-0.49","2188","f","","","","","","","","","key","f","16.665999999999883","720","250"
"","psychophysics","60","256749","0.0-6.0-0.50","1346","j","","","","","","","","","key","j","16.66600000000035","720","250"
"","psychophysics","61","258486","0.0-6.0-0.51","1725","j","","","","","","","","","key","j","16.665999999999958","720","250"
"","psychophysics","62","260338","0.0-6.0-0.52","1846","f","","","","","","","","","key","f","16.666000000000086","720","250"
"","psychophysics","63","261910","0.0-6.0-0.53","1559","f","","","","","","","","","key","f","16.66599999999963","720","250"
"","psychophysics","64","265224","0.0-6.0-0.54","3306","f","","","","","","","","","key","f","16.666000000000086","720","250"
"","psychophysics","65","266618","0.0-6.0-0.55","1384","j","","","","","","","","","key","j","16.665999999999894","720","250"
"","psychophysics","66","267983","0.0-6.0-0.56","1360","f","","","","","","","","","key","f","16.665999999999954","720","250"
"","psychophysics","67","269337","0.0-6.0-0.57","1345","f","","","","","","","","","key","f","16.66599999999962","720","250"
"","psychophysics","68","272475","0.0-6.0-0.58","3133","j","","","","","","","","","key","j","16.665999999999773","720","250"
"","psychophysics","69","274256","0.0-6.0-0.59","1769","j","","","","","","","","","key","j","16.666000000000185","720","250"
"","psychophysics","70","276375","0.0-6.0-0.60","2114","j","","","","","","","","","key","j","16.66600000000021","720","250"
"","psychophysics","71","278389","0.0-6.0-0.61","2002","f","","","","","","","","","key","f","16.665999999999865","720","250"
"","psychophysics","72","281953","0.0-6.0-0.62","3559","j","","","","","","","","","key","j","16.666000000000036","720","250"
"","psychophysics","73","283937","0.0-6.0-0.63","1971","f","","","","","","","","","key","f","16.6660000000004","720","250"
"","psychophysics","74","285516","0.0-6.0-0.64","1573","j","","","","","","","","","key","j","16.665999999999915","720","250"
"","psychophysics","75","287985","0.0-6.0-0.65","2459","f","","","","","","","","","key","f","16.66600000000001","720","250"
"","psychophysics","76","289293","0.0-6.0-0.66","1302","j","","","","","","","","","key","j","16.666000000000086","720","250"
"","psychophysics","77","291866","0.0-6.0-0.67","2561","f","","","","","","","","","key","f","16.666000000000086","720","250"
"","psychophysics","78","295786","0.0-6.0-0.68","3914","f","","","","","","","","","key","f","16.665999999999926","720","250"
"","psychophysics","79","297657","0.0-6.0-0.69","1858","f","","","","","","","","","key","f","16.665999999999798","720","250"
"","psychophysics","80","299370","0.0-6.0-0.70","1706","f","","","","","","","","","key","f","16.665999999999723","720","250"
"","psychophysics","81","301306","0.0-6.0-0.71","1924","j","","","","","","","","","key","j","16.665999999999716","720","250"
"","psychophysics","82","302461","0.0-6.0-0.72","1148","j","","","","","","","","","key","j","16.666000000000007","720","250"
"","psychophysics","83","304684","0.0-6.0-0.73","2212","j","","","","","","","","","key","j","16.666000000000285","720","250"
"","psychophysics","84","306852","0.0-6.0-0.74","2162","j","","","","","","","","","key","j","16.666000000000373","720","250"
"","psychophysics","85","308851","0.0-6.0-0.75","1987","f","","","","","","","","","key","f","16.66600000000013","720","250"
"","psychophysics","86","310628","0.0-6.0-0.76","1770","f","","","","","","","","","key","f","16.666000000000487","720","250"
"","psychophysics","87","312134","0.0-6.0-0.77","1496","f","","","","","","","","","key","f","16.666000000000025","720","250"
"","psychophysics","88","313794","0.0-6.0-0.78","1654","f","","","","","","","","","key","f","16.665999999999816","720","250"
"","psychophysics","89","315471","0.0-6.0-0.79","1666","f","","","","","","","","","key","f","16.66600000000035","720","250"
"","psychophysics","90","317617","0.0-6.0-0.80","2140","f","","","","","","","","","key","f","16.666000000000167","720","250"
"","psychophysics","91","320070","0.0-6.0-0.81","2438","j","","","","","","","","","key","j","16.66599999999983","720","250"
"","psychophysics","92","323233","0.0-6.0-0.82","3156","f","","","","","","","","","key","f","16.665999999999748","720","250"
"","psychophysics","93","326602","0.0-6.0-0.83","3359","j","","","","","","","","","key","j","16.6659999999999","720","250"
"","psychophysics","94","328781","0.0-6.0-0.84","2173","j","","","","","","","","","key","j","16.665999999999677","720","250"
"","psychophysics","95","330547","0.0-6.0-0.85","1758","j","","","","","","","","","key","j","16.665999999999933","720","250"
"","psychophysics","96","332135","0.0-6.0-0.86","1582","f","","","","","","","","","key","f","16.665999999999915","720","250"
"","psychophysics","97","333917","0.0-6.0-0.87","1770","j","","","","","","","","","key","j","16.666000000000185","720","250"
"","psychophysics","98","335656","0.0-6.0-0.88","1733","f","","","","","","","","","key","f","16.665999999999983","720","250"
"","psychophysics","99","336968","0.0-6.0-0.89","1301","f","","","","","","","","","key","f","16.666000000000423","720","250"
"","psychophysics","100","339678","0.0-6.0-0.90","2705","f","","","","","","","","","key","f","16.66600000000015","720","250"
"","psychophysics","101","341748","0.0-6.0-0.91","2058","j","","","","","","","","","key","j","16.666000000000256","720","250"
"","psychophysics","102","343749","0.0-6.0-0.92","1997","j","","","","","","","","","key","j","16.66600000000013","720","250"
"","psychophysics","103","345249","0.0-6.0-0.93","1489","j","","","","","","","","","key","j","16.665999999999727","720","250"
"","psychophysics","104","347090","0.0-6.0-0.94","1835","f","","","","","","","","","key","f","16.666000000000377","720","250"
