"success","trial_type","trial_index","time_elapsed","internal_node_id","rt","response","subname","question_order","gender","varimages","baseimage","baseimagestr","baseimagestr2","stimulus","response_type","key_press","avg_frame_time","center_x","center_y"
"true","fullscreen","0","8388","0.0-0.0","","","","","","","","","","","","","","",""
"","survey-text","1","18135","0.0-1.0","9718","{""name"":""siyu""}","siyu","","","","","","","","","","","",""
"","survey-multi-choice","2","20955","0.0-2.0","2818","{""gender"":""Male""}","","[0]","Male","[{""firstImage"":""stimuli/Male/rcic_base_1_00001_inv.png"",""secondImage"":""stimuli/Male/rcic_base_1_00001_ori.png""},{""firstImage"":""stimuli/Male/rcic_base_1_00002_inv.png"",""secondImage"":""stimuli/Male/rcic_base_1_00002_ori.png""},{""firstImage"":""stimuli/Male/rcic_base_1_00003_inv.png"",""secondImage"":""stimuli/Male/rcic_base_1_00003_ori.png""},{""firstImage"":""stimuli/Male/rcic_base_1_00004_inv.png"",""secondImage"":""stimuli/Male/rcic_base_1_00004_ori.png""},{""firstImage"":""stimuli/Male/rcic_base_1_00005_inv.png"",""secondImage"":""stimuli/Male/rcic_base_1_00005_ori.png""},{""firstImage"":""stimuli/Male/rcic_base_1_00006_inv.png"",""secondImage"":""stimuli/Male/rcic_base_1_00006_ori.png""},{""firstImage"":""stimuli/Male/rcic_base_1_00007_inv.png"",""secondImage"":""stimuli/Male/rcic_base_1_00007_ori.png""},{""firstImage"":""stimuli/Male/rcic_base_1_00008_inv.png"",""secondImage"":""stimuli/Male/rcic_base_1_00008_ori.png""},{""firstImage"":""stimuli/Male/rcic_base_1_00009_inv.png"",""secondImage"":""stimuli/Male/rcic_base_1_00009_ori.png""},{""firstImage"":""stimuli/Male/rcic_base_1_00010_inv.png"",""secondImage"":""stimuli/Male/rcic_base_1_00010_ori.png""},{""firstImage"":""stimuli/Male/rcic_base_1_00011_inv.png"",""secondImage"":""stimuli/Male/rcic_base_1_00011_ori.png""},{""firstImage"":""stimuli/Male/rcic_base_1_00012_inv.png"",""secondImage"":""stimuli/Male/rcic_base_1_00012_ori.png""},{""firstImage"":""stimuli/Male/rcic_base_1_00013_inv.png"",""secondImage"":""stimuli/Male/rcic_base_1_00013_ori.png""},{""firstImage"":""stimuli/Male/rcic_base_1_00014_inv.png"",""secondImage"":""stimuli/Male/rcic_base_1_00014_ori.png""},{""firstImage"":""stimuli/Male/rcic_base_1_00015_inv.png"",""secondImage"":""stimuli/Male/rcic_base_1_00015_ori.png""},{""firstImage"":""stimuli/Male/rcic_base_1_00016_inv.png"",""secondImage"":""stimuli/Male/rcic_base_1_00016_ori.png""},{""firstImage"":""stimuli/Male/rcic_base_1_00017_inv.png"",""secondImage"":""stimuli/Male/rcic_base_1_00017_ori.png""},{""firstImage"":""stimuli/Male/rcic_base_1_00018_inv.png"",""secondImage"":""stimuli/Male/rcic_base_1_00018_ori.png""},{""firstImage"":""stimuli/Male/rcic_base_1_00019_inv.png"",""secondImage"":""stimuli/Male/rcic_base_1_00019_ori.png""},{""firstImage"":""stimuli/Male/rcic_base_1_00020_inv.png"",""secondImage"":""stimuli/Male/rcic_base_1_00020_ori.png""},{""firstImage"":""stimuli/Male/rcic_base_1_00021_inv.png"",""secondImage"":""stimuli/Male/rcic_base_1_00021_ori.png""},{""firstImage"":""stimuli/Male/rcic_base_1_00022_inv.png"",""secondImage"":""stimuli/Male/rcic_base_1_00022_ori.png""},{""firstImage"":""stimuli/Male/rcic_base_1_00023_inv.png"",""secondImage"":""stimuli/Male/rcic_base_1_00023_ori.png""},{""firstImage"":""stimuli/Male/rcic_base_1_00024_inv.png"",""secondImage"":""stimuli/Male/rcic_base_1_00024_ori.png""},{""firstImage"":""stimuli/Male/rcic_base_1_00025_inv.png"",""secondImage"":""stimuli/Male/rcic_base_1_00025_ori.png""},{""firstImage"":""stimuli/Male/rcic_base_1_00026_inv.png"",""secondImage"":""stimuli/Male/rcic_base_1_00026_ori.png""},{""firstImage"":""stimuli/Male/rcic_base_1_00027_inv.png"",""secondImage"":""stimuli/Male/rcic_base_1_00027_ori.png""},{""firstImage"":""stimuli/Male/rcic_base_1_00028_inv.png"",""secondImage"":""stimuli/Male/rcic_base_1_00028_ori.png""},{""firstImage"":""stimuli/Male/rcic_base_1_00029_inv.png"",""secondImage"":""stimuli/Male/rcic_base_1_00029_ori.png""},{""firstImage"":""stimuli/Male/rcic_base_1_00030_inv.png"",""secondImage"":""stimuli/Male/rcic_base_1_00030_ori.png""},{""firstImage"":""stimuli/Male/rcic_base_1_00031_inv.png"",""secondImage"":""stimuli/Male/rcic_base_1_00031_ori.png""},{""firstImage"":""stimuli/Male/rcic_base_1_00032_inv.png"",""secondImage"":""stimuli/Male/rcic_base_1_00032_ori.png""},{""firstImage"":""stimuli/Male/rcic_base_1_00033_inv.png"",""secondImage"":""stimuli/Male/rcic_base_1_00033_ori.png""},{""firstImage"":""stimuli/Male/rcic_base_1_00034_inv.png"",""secondImage"":""stimuli/Male/rcic_base_1_00034_ori.png""},{""firstImage"":""stimuli/Male/rcic_base_1_00035_inv.png"",""secondImage"":""stimuli/Male/rcic_base_1_00035_ori.png""},{""firstImage"":""stimuli/Male/rcic_base_1_00036_inv.png"",""secondImage"":""stimuli/Male/rcic_base_1_00036_ori.png""},{""firstImage"":""stimuli/Male/rcic_base_1_00037_inv.png"",""secondImage"":""stimuli/Male/rcic_base_1_00037_ori.png""},{""firstImage"":""stimuli/Male/rcic_base_1_00038_inv.png"",""secondImage"":""stimuli/Male/rcic_base_1_00038_ori.png""},{""firstImage"":""stimuli/Male/rcic_base_1_00039_inv.png"",""secondImage"":""stimuli/Male/rcic_base_1_00039_ori.png""},{""firstImage"":""stimuli/Male/rcic_base_1_00040_inv.png"",""secondImage"":""stimuli/Male/rcic_base_1_00040_ori.png""},{""firstImage"":""stimuli/Male/rcic_base_1_00041_inv.png"",""secondImage"":""stimuli/Male/rcic_base_1_00041_ori.png""},{""firstImage"":""stimuli/Male/rcic_base_1_00042_inv.png"",""secondImage"":""stimuli/Male/rcic_base_1_00042_ori.png""},{""firstImage"":""stimuli/Male/rcic_base_1_00043_inv.png"",""secondImage"":""stimuli/Male/rcic_base_1_00043_ori.png""},{""firstImage"":""stimuli/Male/rcic_base_1_00044_inv.png"",""secondImage"":""stimuli/Male/rcic_base_1_00044_ori.png""},{""firstImage"":""stimuli/Male/rcic_base_1_00045_inv.png"",""secondImage"":""stimuli/Male/rcic_base_1_00045_ori.png""},{""firstImage"":""stimuli/Male/rcic_base_1_00046_inv.png"",""secondImage"":""stimuli/Male/rcic_base_1_00046_ori.png""},{""firstImage"":""stimuli/Male/rcic_base_1_00047_inv.png"",""secondImage"":""stimuli/Male/rcic_base_1_00047_ori.png""},{""firstImage"":""stimuli/Male/rcic_base_1_00048_inv.png"",""secondImage"":""stimuli/Male/rcic_base_1_00048_ori.png""},{""firstImage"":""stimuli/Male/rcic_base_1_00049_inv.png"",""secondImage"":""stimuli/Male/rcic_base_1_00049_ori.png""},{""firstImage"":""stimuli/Male/rcic_base_1_00050_inv.png"",""secondImage"":""stimuli/Male/rcic_base_1_00050_ori.png""},{""firstImage"":""stimuli/Male/rcic_base_1_00051_inv.png"",""secondImage"":""stimuli/Male/rcic_base_1_00051_ori.png""},{""firstImage"":""stimuli/Male/rcic_base_1_00052_inv.png"",""secondImage"":""stimuli/Male/rcic_base_1_00052_ori.png""},{""firstImage"":""stimuli/Male/rcic_base_1_00053_inv.png"",""secondImage"":""stimuli/Male/rcic_base_1_00053_ori.png""},{""firstImage"":""stimuli/Male/rcic_base_1_00054_inv.png"",""secondImage"":""stimuli/Male/rcic_base_1_00054_ori.png""},{""firstImage"":""stimuli/Male/rcic_base_1_00055_inv.png"",""secondImage"":""stimuli/Male/rcic_base_1_00055_ori.png""},{""firstImage"":""stimuli/Male/rcic_base_1_00056_inv.png"",""secondImage"":""stimuli/Male/rcic_base_1_00056_ori.png""},{""firstImage"":""stimuli/Male/rcic_base_1_00057_inv.png"",""secondImage"":""stimuli/Male/rcic_base_1_00057_ori.png""},{""firstImage"":""stimuli/Male/rcic_base_1_00058_inv.png"",""secondImage"":""stimuli/Male/rcic_base_1_00058_ori.png""},{""firstImage"":""stimuli/Male/rcic_base_1_00059_inv.png"",""secondImage"":""stimuli/Male/rcic_base_1_00059_ori.png""},{""firstImage"":""stimuli/Male/rcic_base_1_00060_inv.png"",""secondImage"":""stimuli/Male/rcic_base_1_00060_ori.png""},{""firstImage"":""stimuli/Male/rcic_base_1_00061_inv.png"",""secondImage"":""stimuli/Male/rcic_base_1_00061_ori.png""},{""firstImage"":""stimuli/Male/rcic_base_1_00062_inv.png"",""secondImage"":""stimuli/Male/rcic_base_1_00062_ori.png""},{""firstImage"":""stimuli/Male/rcic_base_1_00063_inv.png"",""secondImage"":""stimuli/Male/rcic_base_1_00063_ori.png""},{""firstImage"":""stimuli/Male/rcic_base_1_00064_inv.png"",""secondImage"":""stimuli/Male/rcic_base_1_00064_ori.png""},{""firstImage"":""stimuli/Male/rcic_base_1_00065_inv.png"",""secondImage"":""stimuli/Male/rcic_base_1_00065_ori.png""},{""firstImage"":""stimuli/Male/rcic_base_1_00066_inv.png"",""secondImage"":""stimuli/Male/rcic_base_1_00066_ori.png""},{""firstImage"":""stimuli/Male/rcic_base_1_00067_inv.png"",""secondImage"":""stimuli/Male/rcic_base_1_00067_ori.png""},{""firstImage"":""stimuli/Male/rcic_base_1_00068_inv.png"",""secondImage"":""stimuli/Male/rcic_base_1_00068_ori.png""},{""firstImage"":""stimuli/Male/rcic_base_1_00069_inv.png"",""secondImage"":""stimuli/Male/rcic_base_1_00069_ori.png""},{""firstImage"":""stimuli/Male/rcic_base_1_00070_inv.png"",""secondImage"":""stimuli/Male/rcic_base_1_00070_ori.png""},{""firstImage"":""stimuli/Male/rcic_base_1_00071_inv.png"",""secondImage"":""stimuli/Male/rcic_base_1_00071_ori.png""},{""firstImage"":""stimuli/Male/rcic_base_1_00072_inv.png"",""secondImage"":""stimuli/Male/rcic_base_1_00072_ori.png""},{""firstImage"":""stimuli/Male/rcic_base_1_00073_inv.png"",""secondImage"":""stimuli/Male/rcic_base_1_00073_ori.png""},{""firstImage"":""stimuli/Male/rcic_base_1_00074_inv.png"",""secondImage"":""stimuli/Male/rcic_base_1_00074_ori.png""},{""firstImage"":""stimuli/Male/rcic_base_1_00075_inv.png"",""secondImage"":""stimuli/Male/rcic_base_1_00075_ori.png""},{""firstImage"":""stimuli/Male/rcic_base_1_00076_inv.png"",""secondImage"":""stimuli/Male/rcic_base_1_00076_ori.png""},{""firstImage"":""stimuli/Male/rcic_base_1_00077_inv.png"",""secondImage"":""stimuli/Male/rcic_base_1_00077_ori.png""},{""firstImage"":""stimuli/Male/rcic_base_1_00078_inv.png"",""secondImage"":""stimuli/Male/rcic_base_1_00078_ori.png""},{""firstImage"":""stimuli/Male/rcic_base_1_00079_inv.png"",""secondImage"":""stimuli/Male/rcic_base_1_00079_ori.png""},{""firstImage"":""stimuli/Male/rcic_base_1_00080_inv.png"",""secondImage"":""stimuli/Male/rcic_base_1_00080_ori.png""},{""firstImage"":""stimuli/Male/rcic_base_1_00081_inv.png"",""secondImage"":""stimuli/Male/rcic_base_1_00081_ori.png""},{""firstImage"":""stimuli/Male/rcic_base_1_00082_inv.png"",""secondImage"":""stimuli/Male/rcic_base_1_00082_ori.png""},{""firstImage"":""stimuli/Male/rcic_base_1_00083_inv.png"",""secondImage"":""stimuli/Male/rcic_base_1_00083_ori.png""},{""firstImage"":""stimuli/Male/rcic_base_1_00084_inv.png"",""secondImage"":""stimuli/Male/rcic_base_1_00084_ori.png""},{""firstImage"":""stimuli/Male/rcic_base_1_00085_inv.png"",""secondImage"":""stimuli/Male/rcic_base_1_00085_ori.png""},{""firstImage"":""stimuli/Male/rcic_base_1_00086_inv.png"",""secondImage"":""stimuli/Male/rcic_base_1_00086_ori.png""},{""firstImage"":""stimuli/Male/rcic_base_1_00087_inv.png"",""secondImage"":""stimuli/Male/rcic_base_1_00087_ori.png""},{""firstImage"":""stimuli/Male/rcic_base_1_00088_inv.png"",""secondImage"":""stimuli/Male/rcic_base_1_00088_ori.png""},{""firstImage"":""stimuli/Male/rcic_base_1_00089_inv.png"",""secondImage"":""stimuli/Male/rcic_base_1_00089_ori.png""},{""firstImage"":""stimuli/Male/rcic_base_1_00090_inv.png"",""secondImage"":""stimuli/Male/rcic_base_1_00090_ori.png""},{""firstImage"":""stimuli/Male/rcic_base_1_00091_inv.png"",""secondImage"":""stimuli/Male/rcic_base_1_00091_ori.png""},{""firstImage"":""stimuli/Male/rcic_base_1_00092_inv.png"",""secondImage"":""stimuli/Male/rcic_base_1_00092_ori.png""},{""firstImage"":""stimuli/Male/rcic_base_1_00093_inv.png"",""secondImage"":""stimuli/Male/rcic_base_1_00093_ori.png""},{""firstImage"":""stimuli/Male/rcic_base_1_00094_inv.png"",""secondImage"":""stimuli/Male/rcic_base_1_00094_ori.png""},{""firstImage"":""stimuli/Male/rcic_base_1_00095_inv.png"",""secondImage"":""stimuli/Male/rcic_base_1_00095_ori.png""},{""firstImage"":""stimuli/Male/rcic_base_1_00096_inv.png"",""secondImage"":""stimuli/Male/rcic_base_1_00096_ori.png""},{""firstImage"":""stimuli/Male/rcic_base_1_00097_inv.png"",""secondImage"":""stimuli/Male/rcic_base_1_00097_ori.png""},{""firstImage"":""stimuli/Male/rcic_base_1_00098_inv.png"",""secondImage"":""stimuli/Male/rcic_base_1_00098_ori.png""},{""firstImage"":""stimuli/Male/rcic_base_1_00099_inv.png"",""secondImage"":""stimuli/Male/rcic_base_1_00099_ori.png""},{""firstImage"":""stimuli/Male/rcic_base_1_00100_inv.png"",""secondImage"":""stimuli/Male/rcic_base_1_00100_ori.png""}]","base_image/base_Male.png","<p>Imagine this is your romantic partner, please remember this face. </p><div class='center'><img src='base_image/base_Male.png' align='middle'></img><p class='small'><strong>In each trial, two faces will show up, please select the one that looks like your partner the most.</strong></p></div><p>Press <strong>F</strong> to choose the left image, Press <strong>J</strong> to choose the right image</p><p>We have <strong>5 practice trials</strong> for you to get familiar with the task. Press start to proceed when you are ready.</p>","<p>Great, now you know the rule! This is a memory test, <strong>please remember your partner's face carefully, this image will not be shown again.</strong></p><div class='center'><img src='base_image/base_Male.png' align='middle'></img><p class='small'>For this pilot study, we have 100 trials, we really appreciate your time in doing this, it will take about 10 minutes. </p></div><p>Press <strong>F</strong> to choose the left image, Press <strong>J</strong> to choose the right image</p><p>Press start when you are ready.</p>","","","","","",""
"","html-button-response","3","37840","0.0-3.0","16483","0","","","","","","","","<p>Imagine this is your romantic partner, please remember this face. </p><div class='center'><img src='base_image/base_Male.png' align='middle'></img><p class='small'><strong>In each trial, two faces will show up, please select the one that looks like your partner the most.</strong></p></div><p>Press <strong>F</strong> to choose the left image, Press <strong>J</strong> to choose the right image</p><p>We have <strong>5 practice trials</strong> for you to get familiar with the task. Press start to proceed when you are ready.</p>","","","","",""
"","psychophysics","4","42229","0.0-4.0-0.0","4380","f","","","","","","","","","key","f","16.66412213740458","720","250"
"","psychophysics","5","43967","0.0-4.0-0.1","1708","f","","","","","","","","","key","f","16.46153846153846","720","250"
"","psychophysics","6","49217","0.0-4.0-0.2","5225","f","","","","","","","","","key","f","16.630573248407643","720","250"
"","psychophysics","7","51154","0.0-4.0-0.3","1909","f","","","","","","","","","key","f","16.6","720","250"
"","psychophysics","8","53177","0.0-4.0-0.4","1995","j","","","","","","","","","key","j","16.566666666666666","720","250"
"","html-button-response","9","70702","0.0-5.0","17502","0","","","","","","","","<p>Great, now you know the rule! This is a memory test, <strong>please remember your partner's face carefully, this image will not be shown again.</strong></p><div class='center'><img src='base_image/base_Male.png' align='middle'></img><p class='small'>For this pilot study, we have 100 trials, we really appreciate your time in doing this, it will take about 10 minutes. </p></div><p>Press <strong>F</strong> to choose the left image, Press <strong>J</strong> to choose the right image</p><p>Press start when you are ready.</p>","","","","",""
"","psychophysics","10","72990","0.0-6.0-0.0","2284","j","","","","","","","","","key","j","16.669117647058822","720","250"
"","psychophysics","11","77894","0.0-6.0-0.1","4869","f","","","","","","","","","key","f","16.61433447098976","720","250"
"","psychophysics","12","79495","0.0-6.0-0.2","1571","j","","","","","","","","","key","j","16.46315789473684","720","250"
"","psychophysics","13","81346","0.0-6.0-0.3","1825","j","","","","","","","","","key","j","16.463636363636365","720","250"
"","psychophysics","14","83694","0.0-6.0-0.4","2318","j","","","","","","","","","key","j","16.514285714285716","720","250"
"","psychophysics","15","85504","0.0-6.0-0.5","1778","f","","","","","","","","","key","f","16.537037037037038","720","250"
"","psychophysics","16","87076","0.0-6.0-0.6","1545","j","","","","","","","","","key","j","16.591397849462364","720","250"
"","psychophysics","17","88625","0.0-6.0-0.7","1520","j","","","","","","","","","key","j","16.445652173913043","720","250"
"","psychophysics","18","90351","0.0-6.0-0.8","1695","j","","","","","","","","","key","j","16.514563106796118","720","250"
"","psychophysics","19","92234","0.0-6.0-0.9","1857","f","","","","","","","","","key","f","16.5625","720","250"
"","psychophysics","20","93806","0.0-6.0-0.10","1538","j","","","","","","","","","key","j","16.559139784946236","720","250"
"","psychophysics","21","95601","0.0-6.0-0.11","1768","f","","","","","","","","","key","f","16.50467289719626","720","250"
"","psychophysics","22","97534","0.0-6.0-0.12","1903","f","","","","","","","","","key","f","16.582608695652173","720","250"
"","psychophysics","23","99226","0.0-6.0-0.13","1665","f","","","","","","","","","key","f","16.55","720","250"
"","psychophysics","24","101129","0.0-6.0-0.14","1868","f","","","","","","","","","key","f","16.486725663716815","720","250"
"","psychophysics","25","102768","0.0-6.0-0.15","1612","j","","","","","","","","","key","j","16.428571428571427","720","250"
"","psychophysics","26","104575","0.0-6.0-0.16","1778","f","","","","","","","","","key","f","16.570093457943926","720","250"
"","psychophysics","27","106337","0.0-6.0-0.17","1736","j","","","","","","","","","key","j","16.476190476190474","720","250"
"","psychophysics","28","108101","0.0-6.0-0.18","1729","f","","","","","","","","","key","f","16.514285714285716","720","250"
"","psychophysics","29","109853","0.0-6.0-0.19","1726","j","","","","","","","","","key","j","16.548076923076923","720","250"
"","psychophysics","30","111634","0.0-6.0-0.20","1751","f","","","","","","","","","key","f","16.537735849056602","720","250"
"","psychophysics","31","114012","0.0-6.0-0.21","2351","f","","","","","","","","","key","f","16.581560283687942","720","250"
"","psychophysics","32","116079","0.0-6.0-0.22","2035","f","","","","","","","","","key","f","16.495934959349594","720","250"
"","psychophysics","33","117973","0.0-6.0-0.23","1867","f","","","","","","","","","key","f","16.460176991150444","720","250"
"","psychophysics","34","119955","0.0-6.0-0.24","1949","j","","","","","","","","","key","j","16.516949152542374","720","250"
"","psychophysics","35","121559","0.0-6.0-0.25","1572","j","","","","","","","","","key","j","16.51578947368421","720","250"
"","psychophysics","36","123334","0.0-6.0-0.26","1747","j","","","","","","","","","key","j","16.462264150943398","720","250"
"","psychophysics","37","125057","0.0-6.0-0.27","1690","j","","","","","","","","","key","j","16.54901960784314","720","250"
"","psychophysics","38","127284","0.0-6.0-0.28","2192","f","","","","","","","","","key","f","16.541353383458645","720","250"
"","psychophysics","39","128871","0.0-6.0-0.29","1559","j","","","","","","","","","key","j","16.52127659574468","720","250"
"","psychophysics","40","130717","0.0-6.0-0.30","1808","j","","","","","","","","","key","j","16.522935779816514","720","250"
"","psychophysics","41","132470","0.0-6.0-0.31","1722","j","","","","","","","","","key","j","16.419047619047618","720","250"
"","psychophysics","42","134170","0.0-6.0-0.32","1660","j","","","","","","","","","key","j","16.534653465346533","720","250"
"","psychophysics","43","135835","0.0-6.0-0.33","1635","j","","","","","","","","","key","j","16.494949494949495","720","250"
"","psychophysics","44","137534","0.0-6.0-0.34","1667","j","","","","","","","","","key","j","16.554455445544555","720","250"
"","psychophysics","45","138959","0.0-6.0-0.35","1393","f","","","","","","","","","key","f","16.535714285714285","720","250"
"","psychophysics","46","140634","0.0-6.0-0.36","1645","j","","","","","","","","","key","j","16.44","720","250"
"","psychophysics","47","142369","0.0-6.0-0.37","1699","j","","","","","","","","","key","j","16.54368932038835","720","250"
"","psychophysics","48","144268","0.0-6.0-0.38","1863","f","","","","","","","","","key","f","16.530973451327434","720","250"
"","psychophysics","49","145787","0.0-6.0-0.39","1486","j","","","","","","","","","key","j","16.522222222222222","720","250"
"","psychophysics","50","147778","0.0-6.0-0.40","1956","f","","","","","","","","","key","f","16.508474576271187","720","250"
"","psychophysics","51","151264","0.0-6.0-0.41","3463","j","","","","","","","","","key","j","16.60576923076923","720","250"
"","psychophysics","52","152700","0.0-6.0-0.42","1402","f","","","","","","","","","key","f","16.372093023255815","720","250"
"","psychophysics","53","154494","0.0-6.0-0.43","1766","j","","","","","","","","","key","j","16.547169811320753","720","250"
"","psychophysics","54","156280","0.0-6.0-0.44","1757","j","","","","","","","","","key","j","16.5188679245283","720","250"
"","psychophysics","55","158361","0.0-6.0-0.45","2067","j","","","","","","","","","key","j","16.60483870967742","720","250"
"","psychophysics","56","160410","0.0-6.0-0.46","2016","j","","","","","","","","","key","j","16.483606557377048","720","250"
"","psychophysics","57","162110","0.0-6.0-0.47","1668","j","","","","","","","","","key","j","16.455445544554454","720","250"
"","psychophysics","58","163878","0.0-6.0-0.48","1729","j","","","","","","","","","key","j","16.466666666666665","720","250"
"","psychophysics","59","165337","0.0-6.0-0.49","1425","f","","","","","","","","","key","f","16.402298850574713","720","250"
"","psychophysics","60","167567","0.0-6.0-0.50","2201","j","","","","","","","","","key","j","16.533834586466167","720","250"
"","psychophysics","61","169582","0.0-6.0-0.51","1982","f","","","","","","","","","key","f","16.554621848739497","720","250"
"","psychophysics","62","171113","0.0-6.0-0.52","1494","j","","","","","","","","","key","j","16.373626373626372","720","250"
"","psychophysics","63","173377","0.0-6.0-0.53","2233","j","","","","","","","","","key","j","16.582089552238806","720","250"
"","psychophysics","64","175977","0.0-6.0-0.54","2559","f","","","","","","","","","key","f","16.623376623376622","720","250"
"","psychophysics","65","177842","0.0-6.0-0.55","1829","f","","","","","","","","","key","f","16.44144144144144","720","250"
"","psychophysics","66","179175","0.0-6.0-0.56","1303","f","","","","","","","","","key","f","16.379746835443036","720","250"
"","psychophysics","67","180854","0.0-6.0-0.57","1642","f","","","","","","","","","key","f","16.44","720","250"
"","psychophysics","68","182905","0.0-6.0-0.58","2016","j","","","","","","","","","key","j","16.516393442622952","720","250"
"","psychophysics","69","186212","0.0-6.0-0.59","3272","f","","","","","","","","","key","f","16.568527918781726","720","250"
"","psychophysics","70","189287","0.0-6.0-0.60","3041","f","","","","","","","","","key","f","16.53804347826087","720","250"
"","psychophysics","71","193118","0.0-6.0-0.61","3797","f","","","","","","","","","key","f","16.593886462882097","720","250"
"","psychophysics","72","194690","0.0-6.0-0.62","1538","j","","","","","","","","","key","j","16.50537634408602","720","250"
"","psychophysics","73","197630","0.0-6.0-0.63","2905","j","","","","","","","","","key","j","16.548571428571428","720","250"
"","psychophysics","74","199684","0.0-6.0-0.64","2019","f","","","","","","","","","key","f","16.4390243902439","720","250"
"","psychophysics","75","201512","0.0-6.0-0.65","1795","f","","","","","","","","","key","f","16.546296296296298","720","250"
"","psychophysics","76","203228","0.0-6.0-0.66","1682","f","","","","","","","","","key","f","16.42156862745098","720","250"
"","psychophysics","77","204860","0.0-6.0-0.67","1601","f","","","","","","","","","key","f","16.391752577319586","720","250"
"","psychophysics","78","206689","0.0-6.0-0.68","1784","f","","","","","","","","","key","f","16.583333333333332","720","250"
"","psychophysics","79","208405","0.0-6.0-0.69","1680","j","","","","","","","","","key","j","16.470588235294116","720","250"
"","psychophysics","80","210594","0.0-6.0-0.70","2158","f","","","","","","","","","key","f","16.515384615384615","720","250"
"","psychophysics","81","212672","0.0-6.0-0.71","2043","f","","","","","","","","","key","f","16.556451612903224","720","250"
"","psychophysics","82","214767","0.0-6.0-0.72","2053","f","","","","","","","","","key","f","16.528","720","250"
"","psychophysics","83","217327","0.0-6.0-0.73","2506","f","","","","","","","","","key","f","16.68211920529801","720","250"
"","psychophysics","84","219870","0.0-6.0-0.74","2504","f","","","","","","","","","key","f","16.5","720","250"
"","psychophysics","85","221955","0.0-6.0-0.75","2039","f","","","","","","","","","key","f","16.516129032258064","720","250"
"","psychophysics","86","224445","0.0-6.0-0.76","2453","f","","","","","","","","","key","f","16.533783783783782","720","250"
"","psychophysics","87","227643","0.0-6.0-0.77","3143","j","","","","","","","","","key","j","16.6984126984127","720","250"
"","psychophysics","88","230001","0.0-6.0-0.78","2320","f","","","","","","","","","key","f","16.49645390070922","720","250"
"","psychophysics","89","231692","0.0-6.0-0.79","1655","f","","","","","","","","","key","f","16.51","720","250"
"","psychophysics","90","233893","0.0-6.0-0.80","2163","f","","","","","","","","","key","f","16.48854961832061","720","250"
"","psychophysics","91","235586","0.0-6.0-0.81","1656","f","","","","","","","","","key","f","16.405940594059405","720","250"
"","psychophysics","92","237294","0.0-6.0-0.82","1671","f","","","","","","","","","key","f","16.623762376237625","720","250"
"","psychophysics","93","239961","0.0-6.0-0.83","2625","j","","","","","","","","","key","j","16.50943396226415","720","250"
"","psychophysics","94","242921","0.0-6.0-0.84","2923","j","","","","","","","","","key","j","16.51412429378531","720","250"
"","psychophysics","95","245397","0.0-6.0-0.85","2442","j","","","","","","","","","key","j","16.551020408163264","720","250"
"","psychophysics","96","247341","0.0-6.0-0.86","1908","j","","","","","","","","","key","j","16.556521739130435","720","250"
"","psychophysics","97","249111","0.0-6.0-0.87","1732","f","","","","","","","","","key","f","16.447619047619046","720","250"
"","psychophysics","98","251027","0.0-6.0-0.88","1881","j","","","","","","","","","key","j","16.548672566371682","720","250"
"","psychophysics","99","252827","0.0-6.0-0.89","1762","j","","","","","","","","","key","j","16.42056074766355","720","250"
"","psychophysics","100","255504","0.0-6.0-0.90","2641","f","","","","","","","","","key","f","16.50625","720","250"
"","psychophysics","101","257272","0.0-6.0-0.91","1726","j","","","","","","","","","key","j","16.466666666666665","720","250"
"","psychophysics","102","259668","0.0-6.0-0.92","2356","j","","","","","","","","","key","j","16.517482517482517","720","250"
"","psychophysics","103","261828","0.0-6.0-0.93","2120","f","","","","","","","","","key","f","16.53125","720","250"
"","psychophysics","104","263918","0.0-6.0-0.94","2047","f","","","","","","","","","key","f","16.588709677419356","720","250"
