"success","trial_type","trial_index","time_elapsed","internal_node_id","rt","response","subname","question_order","gender","varimages","baseimage","baseimagestr","baseimagestr2","stimulus","response_type","key_press","avg_frame_time","center_x","center_y"
"true","fullscreen","0","2404","0.0-0.0","","","","","","","","","","","","","","",""
"","survey-text","1","9166","0.0-1.0","6740","{""name"":""Jacqueline Zimmerman""}","Jacqueline Zimmerman","","","","","","","","","","","",""
"","survey-multi-choice","2","10879","0.0-2.0","1712","{""gender"":""Female""}","","[0]","Female","[{""firstImage"":""stimuli/Female/rcic_base_1_00001_inv.png"",""secondImage"":""stimuli/Female/rcic_base_1_00001_ori.png""},{""firstImage"":""stimuli/Female/rcic_base_1_00002_inv.png"",""secondImage"":""stimuli/Female/rcic_base_1_00002_ori.png""},{""firstImage"":""stimuli/Female/rcic_base_1_00003_inv.png"",""secondImage"":""stimuli/Female/rcic_base_1_00003_ori.png""},{""firstImage"":""stimuli/Female/rcic_base_1_00004_inv.png"",""secondImage"":""stimuli/Female/rcic_base_1_00004_ori.png""},{""firstImage"":""stimuli/Female/rcic_base_1_00005_inv.png"",""secondImage"":""stimuli/Female/rcic_base_1_00005_ori.png""},{""firstImage"":""stimuli/Female/rcic_base_1_00006_inv.png"",""secondImage"":""stimuli/Female/rcic_base_1_00006_ori.png""},{""firstImage"":""stimuli/Female/rcic_base_1_00007_inv.png"",""secondImage"":""stimuli/Female/rcic_base_1_00007_ori.png""},{""firstImage"":""stimuli/Female/rcic_base_1_00008_inv.png"",""secondImage"":""stimuli/Female/rcic_base_1_00008_ori.png""},{""firstImage"":""stimuli/Female/rcic_base_1_00009_inv.png"",""secondImage"":""stimuli/Female/rcic_base_1_00009_ori.png""},{""firstImage"":""stimuli/Female/rcic_base_1_00010_inv.png"",""secondImage"":""stimuli/Female/rcic_base_1_00010_ori.png""},{""firstImage"":""stimuli/Female/rcic_base_1_00011_inv.png"",""secondImage"":""stimuli/Female/rcic_base_1_00011_ori.png""},{""firstImage"":""stimuli/Female/rcic_base_1_00012_inv.png"",""secondImage"":""stimuli/Female/rcic_base_1_00012_ori.png""},{""firstImage"":""stimuli/Female/rcic_base_1_00013_inv.png"",""secondImage"":""stimuli/Female/rcic_base_1_00013_ori.png""},{""firstImage"":""stimuli/Female/rcic_base_1_00014_inv.png"",""secondImage"":""stimuli/Female/rcic_base_1_00014_ori.png""},{""firstImage"":""stimuli/Female/rcic_base_1_00015_inv.png"",""secondImage"":""stimuli/Female/rcic_base_1_00015_ori.png""},{""firstImage"":""stimuli/Female/rcic_base_1_00016_inv.png"",""secondImage"":""stimuli/Female/rcic_base_1_00016_ori.png""},{""firstImage"":""stimuli/Female/rcic_base_1_00017_inv.png"",""secondImage"":""stimuli/Female/rcic_base_1_00017_ori.png""},{""firstImage"":""stimuli/Female/rcic_base_1_00018_inv.png"",""secondImage"":""stimuli/Female/rcic_base_1_00018_ori.png""},{""firstImage"":""stimuli/Female/rcic_base_1_00019_inv.png"",""secondImage"":""stimuli/Female/rcic_base_1_00019_ori.png""},{""firstImage"":""stimuli/Female/rcic_base_1_00020_inv.png"",""secondImage"":""stimuli/Female/rcic_base_1_00020_ori.png""},{""firstImage"":""stimuli/Female/rcic_base_1_00021_inv.png"",""secondImage"":""stimuli/Female/rcic_base_1_00021_ori.png""},{""firstImage"":""stimuli/Female/rcic_base_1_00022_inv.png"",""secondImage"":""stimuli/Female/rcic_base_1_00022_ori.png""},{""firstImage"":""stimuli/Female/rcic_base_1_00023_inv.png"",""secondImage"":""stimuli/Female/rcic_base_1_00023_ori.png""},{""firstImage"":""stimuli/Female/rcic_base_1_00024_inv.png"",""secondImage"":""stimuli/Female/rcic_base_1_00024_ori.png""},{""firstImage"":""stimuli/Female/rcic_base_1_00025_inv.png"",""secondImage"":""stimuli/Female/rcic_base_1_00025_ori.png""},{""firstImage"":""stimuli/Female/rcic_base_1_00026_inv.png"",""secondImage"":""stimuli/Female/rcic_base_1_00026_ori.png""},{""firstImage"":""stimuli/Female/rcic_base_1_00027_inv.png"",""secondImage"":""stimuli/Female/rcic_base_1_00027_ori.png""},{""firstImage"":""stimuli/Female/rcic_base_1_00028_inv.png"",""secondImage"":""stimuli/Female/rcic_base_1_00028_ori.png""},{""firstImage"":""stimuli/Female/rcic_base_1_00029_inv.png"",""secondImage"":""stimuli/Female/rcic_base_1_00029_ori.png""},{""firstImage"":""stimuli/Female/rcic_base_1_00030_inv.png"",""secondImage"":""stimuli/Female/rcic_base_1_00030_ori.png""},{""firstImage"":""stimuli/Female/rcic_base_1_00031_inv.png"",""secondImage"":""stimuli/Female/rcic_base_1_00031_ori.png""},{""firstImage"":""stimuli/Female/rcic_base_1_00032_inv.png"",""secondImage"":""stimuli/Female/rcic_base_1_00032_ori.png""},{""firstImage"":""stimuli/Female/rcic_base_1_00033_inv.png"",""secondImage"":""stimuli/Female/rcic_base_1_00033_ori.png""},{""firstImage"":""stimuli/Female/rcic_base_1_00034_inv.png"",""secondImage"":""stimuli/Female/rcic_base_1_00034_ori.png""},{""firstImage"":""stimuli/Female/rcic_base_1_00035_inv.png"",""secondImage"":""stimuli/Female/rcic_base_1_00035_ori.png""},{""firstImage"":""stimuli/Female/rcic_base_1_00036_inv.png"",""secondImage"":""stimuli/Female/rcic_base_1_00036_ori.png""},{""firstImage"":""stimuli/Female/rcic_base_1_00037_inv.png"",""secondImage"":""stimuli/Female/rcic_base_1_00037_ori.png""},{""firstImage"":""stimuli/Female/rcic_base_1_00038_inv.png"",""secondImage"":""stimuli/Female/rcic_base_1_00038_ori.png""},{""firstImage"":""stimuli/Female/rcic_base_1_00039_inv.png"",""secondImage"":""stimuli/Female/rcic_base_1_00039_ori.png""},{""firstImage"":""stimuli/Female/rcic_base_1_00040_inv.png"",""secondImage"":""stimuli/Female/rcic_base_1_00040_ori.png""},{""firstImage"":""stimuli/Female/rcic_base_1_00041_inv.png"",""secondImage"":""stimuli/Female/rcic_base_1_00041_ori.png""},{""firstImage"":""stimuli/Female/rcic_base_1_00042_inv.png"",""secondImage"":""stimuli/Female/rcic_base_1_00042_ori.png""},{""firstImage"":""stimuli/Female/rcic_base_1_00043_inv.png"",""secondImage"":""stimuli/Female/rcic_base_1_00043_ori.png""},{""firstImage"":""stimuli/Female/rcic_base_1_00044_inv.png"",""secondImage"":""stimuli/Female/rcic_base_1_00044_ori.png""},{""firstImage"":""stimuli/Female/rcic_base_1_00045_inv.png"",""secondImage"":""stimuli/Female/rcic_base_1_00045_ori.png""},{""firstImage"":""stimuli/Female/rcic_base_1_00046_inv.png"",""secondImage"":""stimuli/Female/rcic_base_1_00046_ori.png""},{""firstImage"":""stimuli/Female/rcic_base_1_00047_inv.png"",""secondImage"":""stimuli/Female/rcic_base_1_00047_ori.png""},{""firstImage"":""stimuli/Female/rcic_base_1_00048_inv.png"",""secondImage"":""stimuli/Female/rcic_base_1_00048_ori.png""},{""firstImage"":""stimuli/Female/rcic_base_1_00049_inv.png"",""secondImage"":""stimuli/Female/rcic_base_1_00049_ori.png""},{""firstImage"":""stimuli/Female/rcic_base_1_00050_inv.png"",""secondImage"":""stimuli/Female/rcic_base_1_00050_ori.png""},{""firstImage"":""stimuli/Female/rcic_base_1_00051_inv.png"",""secondImage"":""stimuli/Female/rcic_base_1_00051_ori.png""},{""firstImage"":""stimuli/Female/rcic_base_1_00052_inv.png"",""secondImage"":""stimuli/Female/rcic_base_1_00052_ori.png""},{""firstImage"":""stimuli/Female/rcic_base_1_00053_inv.png"",""secondImage"":""stimuli/Female/rcic_base_1_00053_ori.png""},{""firstImage"":""stimuli/Female/rcic_base_1_00054_inv.png"",""secondImage"":""stimuli/Female/rcic_base_1_00054_ori.png""},{""firstImage"":""stimuli/Female/rcic_base_1_00055_inv.png"",""secondImage"":""stimuli/Female/rcic_base_1_00055_ori.png""},{""firstImage"":""stimuli/Female/rcic_base_1_00056_inv.png"",""secondImage"":""stimuli/Female/rcic_base_1_00056_ori.png""},{""firstImage"":""stimuli/Female/rcic_base_1_00057_inv.png"",""secondImage"":""stimuli/Female/rcic_base_1_00057_ori.png""},{""firstImage"":""stimuli/Female/rcic_base_1_00058_inv.png"",""secondImage"":""stimuli/Female/rcic_base_1_00058_ori.png""},{""firstImage"":""stimuli/Female/rcic_base_1_00059_inv.png"",""secondImage"":""stimuli/Female/rcic_base_1_00059_ori.png""},{""firstImage"":""stimuli/Female/rcic_base_1_00060_inv.png"",""secondImage"":""stimuli/Female/rcic_base_1_00060_ori.png""},{""firstImage"":""stimuli/Female/rcic_base_1_00061_inv.png"",""secondImage"":""stimuli/Female/rcic_base_1_00061_ori.png""},{""firstImage"":""stimuli/Female/rcic_base_1_00062_inv.png"",""secondImage"":""stimuli/Female/rcic_base_1_00062_ori.png""},{""firstImage"":""stimuli/Female/rcic_base_1_00063_inv.png"",""secondImage"":""stimuli/Female/rcic_base_1_00063_ori.png""},{""firstImage"":""stimuli/Female/rcic_base_1_00064_inv.png"",""secondImage"":""stimuli/Female/rcic_base_1_00064_ori.png""},{""firstImage"":""stimuli/Female/rcic_base_1_00065_inv.png"",""secondImage"":""stimuli/Female/rcic_base_1_00065_ori.png""},{""firstImage"":""stimuli/Female/rcic_base_1_00066_inv.png"",""secondImage"":""stimuli/Female/rcic_base_1_00066_ori.png""},{""firstImage"":""stimuli/Female/rcic_base_1_00067_inv.png"",""secondImage"":""stimuli/Female/rcic_base_1_00067_ori.png""},{""firstImage"":""stimuli/Female/rcic_base_1_00068_inv.png"",""secondImage"":""stimuli/Female/rcic_base_1_00068_ori.png""},{""firstImage"":""stimuli/Female/rcic_base_1_00069_inv.png"",""secondImage"":""stimuli/Female/rcic_base_1_00069_ori.png""},{""firstImage"":""stimuli/Female/rcic_base_1_00070_inv.png"",""secondImage"":""stimuli/Female/rcic_base_1_00070_ori.png""},{""firstImage"":""stimuli/Female/rcic_base_1_00071_inv.png"",""secondImage"":""stimuli/Female/rcic_base_1_00071_ori.png""},{""firstImage"":""stimuli/Female/rcic_base_1_00072_inv.png"",""secondImage"":""stimuli/Female/rcic_base_1_00072_ori.png""},{""firstImage"":""stimuli/Female/rcic_base_1_00073_inv.png"",""secondImage"":""stimuli/Female/rcic_base_1_00073_ori.png""},{""firstImage"":""stimuli/Female/rcic_base_1_00074_inv.png"",""secondImage"":""stimuli/Female/rcic_base_1_00074_ori.png""},{""firstImage"":""stimuli/Female/rcic_base_1_00075_inv.png"",""secondImage"":""stimuli/Female/rcic_base_1_00075_ori.png""},{""firstImage"":""stimuli/Female/rcic_base_1_00076_inv.png"",""secondImage"":""stimuli/Female/rcic_base_1_00076_ori.png""},{""firstImage"":""stimuli/Female/rcic_base_1_00077_inv.png"",""secondImage"":""stimuli/Female/rcic_base_1_00077_ori.png""},{""firstImage"":""stimuli/Female/rcic_base_1_00078_inv.png"",""secondImage"":""stimuli/Female/rcic_base_1_00078_ori.png""},{""firstImage"":""stimuli/Female/rcic_base_1_00079_inv.png"",""secondImage"":""stimuli/Female/rcic_base_1_00079_ori.png""},{""firstImage"":""stimuli/Female/rcic_base_1_00080_inv.png"",""secondImage"":""stimuli/Female/rcic_base_1_00080_ori.png""},{""firstImage"":""stimuli/Female/rcic_base_1_00081_inv.png"",""secondImage"":""stimuli/Female/rcic_base_1_00081_ori.png""},{""firstImage"":""stimuli/Female/rcic_base_1_00082_inv.png"",""secondImage"":""stimuli/Female/rcic_base_1_00082_ori.png""},{""firstImage"":""stimuli/Female/rcic_base_1_00083_inv.png"",""secondImage"":""stimuli/Female/rcic_base_1_00083_ori.png""},{""firstImage"":""stimuli/Female/rcic_base_1_00084_inv.png"",""secondImage"":""stimuli/Female/rcic_base_1_00084_ori.png""},{""firstImage"":""stimuli/Female/rcic_base_1_00085_inv.png"",""secondImage"":""stimuli/Female/rcic_base_1_00085_ori.png""},{""firstImage"":""stimuli/Female/rcic_base_1_00086_inv.png"",""secondImage"":""stimuli/Female/rcic_base_1_00086_ori.png""},{""firstImage"":""stimuli/Female/rcic_base_1_00087_inv.png"",""secondImage"":""stimuli/Female/rcic_base_1_00087_ori.png""},{""firstImage"":""stimuli/Female/rcic_base_1_00088_inv.png"",""secondImage"":""stimuli/Female/rcic_base_1_00088_ori.png""},{""firstImage"":""stimuli/Female/rcic_base_1_00089_inv.png"",""secondImage"":""stimuli/Female/rcic_base_1_00089_ori.png""},{""firstImage"":""stimuli/Female/rcic_base_1_00090_inv.png"",""secondImage"":""stimuli/Female/rcic_base_1_00090_ori.png""},{""firstImage"":""stimuli/Female/rcic_base_1_00091_inv.png"",""secondImage"":""stimuli/Female/rcic_base_1_00091_ori.png""},{""firstImage"":""stimuli/Female/rcic_base_1_00092_inv.png"",""secondImage"":""stimuli/Female/rcic_base_1_00092_ori.png""},{""firstImage"":""stimuli/Female/rcic_base_1_00093_inv.png"",""secondImage"":""stimuli/Female/rcic_base_1_00093_ori.png""},{""firstImage"":""stimuli/Female/rcic_base_1_00094_inv.png"",""secondImage"":""stimuli/Female/rcic_base_1_00094_ori.png""},{""firstImage"":""stimuli/Female/rcic_base_1_00095_inv.png"",""secondImage"":""stimuli/Female/rcic_base_1_00095_ori.png""},{""firstImage"":""stimuli/Female/rcic_base_1_00096_inv.png"",""secondImage"":""stimuli/Female/rcic_base_1_00096_ori.png""},{""firstImage"":""stimuli/Female/rcic_base_1_00097_inv.png"",""secondImage"":""stimuli/Female/rcic_base_1_00097_ori.png""},{""firstImage"":""stimuli/Female/rcic_base_1_00098_inv.png"",""secondImage"":""stimuli/Female/rcic_base_1_00098_ori.png""},{""firstImage"":""stimuli/Female/rcic_base_1_00099_inv.png"",""secondImage"":""stimuli/Female/rcic_base_1_00099_ori.png""},{""firstImage"":""stimuli/Female/rcic_base_1_00100_inv.png"",""secondImage"":""stimuli/Female/rcic_base_1_00100_ori.png""}]","base_image/base_Female.png","<p>Imagine this is your romantic partner, please remember this face. </p><div class='center'><img src='base_image/base_Female.png' align='middle'></img><p class='small'><strong>In each trial, two faces will show up, please select the one that looks like your partner the most.</strong></p></div><p>Press <strong>F</strong> to choose the left image, Press <strong>J</strong> to choose the right image</p><p>We have <strong>5 practice trials</strong> for you to get familiar with the task. Press start to proceed when you are ready.</p>","<p>Great, now you know the rule! This is a memory test, <strong>please remember your partner's face carefully, this image will not be shown again.</strong></p><div class='center'><img src='base_image/base_Female.png' align='middle'></img><p class='small'>For this pilot study, we have 100 trials, we really appreciate your time in doing this, it will take about 10 minutes. </p></div><p>Press <strong>F</strong> to choose the left image, Press <strong>J</strong> to choose the right image</p><p>Press start when you are ready.</p>","","","","","",""
"","html-button-response","3","13069","0.0-3.0","1785","0","","","","","","","","<p>Imagine this is your romantic partner, please remember this face. </p><div class='center'><img src='base_image/base_Female.png' align='middle'></img><p class='small'><strong>In each trial, two faces will show up, please select the one that looks like your partner the most.</strong></p></div><p>Press <strong>F</strong> to choose the left image, Press <strong>J</strong> to choose the right image</p><p>We have <strong>5 practice trials</strong> for you to get familiar with the task. Press start to proceed when you are ready.</p>","","","","",""
"","psychophysics","4","18393","0.0-4.0-0.0","5317","f","","","","","","","","","key","f","16.67610062893082","720","250"
"","psychophysics","5","22006","0.0-4.0-0.1","3607","f","","","","","","","","","key","f","16.666666666666668","720","250"
"","psychophysics","6","25175","0.0-4.0-0.2","3162","j","","","","","","","","","key","j","16.666666666666668","720","250"
"","psychophysics","7","28588","0.0-4.0-0.3","3405","f","","","","","","","","","key","f","16.666666666666668","720","250"
"","psychophysics","8","32128","0.0-4.0-0.4","3532","j","","","","","","","","","key","j","16.66824644549763","720","250"
"","html-button-response","9","41005","0.0-5.0","8874","0","","","","","","","","<p>Great, now you know the rule! This is a memory test, <strong>please remember your partner's face carefully, this image will not be shown again.</strong></p><div class='center'><img src='base_image/base_Female.png' align='middle'></img><p class='small'>For this pilot study, we have 100 trials, we really appreciate your time in doing this, it will take about 10 minutes. </p></div><p>Press <strong>F</strong> to choose the left image, Press <strong>J</strong> to choose the right image</p><p>Press start when you are ready.</p>","","","","",""
"","psychophysics","10","43663","0.0-6.0-0.0","2651","f","","","","","","","","","key","f","16.696202531645568","720","250"
"","psychophysics","11","47379","0.0-6.0-0.1","3709","f","","","","","","","","","key","f","16.66216216216216","720","250"
"","psychophysics","12","50973","0.0-6.0-0.2","3587","j","","","","","","","","","key","j","16.672897196261683","720","250"
"","psychophysics","13","54942","0.0-6.0-0.3","3961","j","","","","","","","","","key","j","16.632911392405063","720","250"
"","psychophysics","14","57370","0.0-6.0-0.4","2421","j","","","","","","","","","key","j","16.6","720","250"
"","psychophysics","15","60762","0.0-6.0-0.5","3386","f","","","","","","","","","key","f","16.65024630541872","720","250"
"","psychophysics","16","62969","0.0-6.0-0.6","2200","f","","","","","","","","","key","f","16.66412213740458","720","250"
"","psychophysics","17","64766","0.0-6.0-0.7","1790","j","","","","","","","","","key","j","16.635514018691588","720","250"
"","psychophysics","18","67481","0.0-6.0-0.8","2707","f","","","","","","","","","key","f","16.65432098765432","720","250"
"","psychophysics","19","70810","0.0-6.0-0.9","3320","f","","","","","","","","","key","f","16.668341708542712","720","250"
"","psychophysics","20","72562","0.0-6.0-0.10","1746","j","","","","","","","","","key","j","16.66346153846154","720","250"
"","psychophysics","21","74155","0.0-6.0-0.11","1585","j","","","","","","","","","key","j","16.670212765957448","720","250"
"","psychophysics","22","75672","0.0-6.0-0.12","1509","f","","","","","","","","","key","f","16.6","720","250"
"","psychophysics","23","77884","0.0-6.0-0.13","2204","j","","","","","","","","","key","j","16.62121212121212","720","250"
"","psychophysics","24","79419","0.0-6.0-0.14","1530","j","","","","","","","","","key","j","16.681318681318682","720","250"
"","psychophysics","25","81816","0.0-6.0-0.15","2389","f","","","","","","","","","key","f","16.65034965034965","720","250"
"","psychophysics","26","83980","0.0-6.0-0.16","2156","f","","","","","","","","","key","f","16.65891472868217","720","250"
"","psychophysics","27","85810","0.0-6.0-0.17","1821","j","","","","","","","","","key","j","16.6697247706422","720","250"
"","psychophysics","28","89416","0.0-6.0-0.18","3601","j","","","","","","","","","key","j","16.665116279069768","720","250"
"","psychophysics","29","91004","0.0-6.0-0.19","1581","j","","","","","","","","","key","j","16.670212765957448","720","250"
"","psychophysics","30","92648","0.0-6.0-0.20","1636","f","","","","","","","","","key","f","16.602040816326532","720","250"
"","psychophysics","31","95062","0.0-6.0-0.21","2406","j","","","","","","","","","key","j","16.666666666666668","720","250"
"","psychophysics","32","97171","0.0-6.0-0.22","2103","j","","","","","","","","","key","j","16.68","720","250"
"","psychophysics","33","100621","0.0-6.0-0.23","3442","f","","","","","","","","","key","f","16.640776699029125","720","250"
"","psychophysics","34","103044","0.0-6.0-0.24","2417","j","","","","","","","","","key","j","16.63448275862069","720","250"
"","psychophysics","35","105003","0.0-6.0-0.25","1950","f","","","","","","","","","key","f","16.663793103448278","720","250"
"","psychophysics","36","106748","0.0-6.0-0.26","1738","j","","","","","","","","","key","j","16.634615384615383","720","250"
"","psychophysics","37","109747","0.0-6.0-0.27","2991","f","","","","","","","","","key","f","16.670391061452513","720","250"
"","psychophysics","38","111832","0.0-6.0-0.28","2078","j","","","","","","","","","key","j","16.669354838709676","720","250"
"","psychophysics","39","113872","0.0-6.0-0.29","2031","f","","","","","","","","","key","f","16.66115702479339","720","250"
"","psychophysics","40","116509","0.0-6.0-0.30","2630","f","","","","","","","","","key","f","16.626582278481013","720","250"
"","psychophysics","41","118827","0.0-6.0-0.31","2310","f","","","","","","","","","key","f","16.666666666666668","720","250"
"","psychophysics","42","120535","0.0-6.0-0.32","1700","j","","","","","","","","","key","j","16.673267326732674","720","250"
"","psychophysics","43","122248","0.0-6.0-0.33","1704","f","","","","","","","","","key","f","16.637254901960784","720","250"
"","psychophysics","44","124962","0.0-6.0-0.34","2708","j","","","","","","","","","key","j","16.666666666666668","720","250"
"","psychophysics","45","126634","0.0-6.0-0.35","1663","f","","","","","","","","","key","f","16.67676767676768","720","250"
"","psychophysics","46","128360","0.0-6.0-0.36","1717","j","","","","","","","","","key","j","16.62135922330097","720","250"
"","psychophysics","47","130023","0.0-6.0-0.37","1653","f","","","","","","","","","key","f","16.663265306122447","720","250"
"","psychophysics","48","132297","0.0-6.0-0.38","2267","f","","","","","","","","","key","f","16.610294117647058","720","250"
"","psychophysics","49","134587","0.0-6.0-0.39","2281","f","","","","","","","","","key","f","16.669117647058822","720","250"
"","psychophysics","50","136538","0.0-6.0-0.40","1943","j","","","","","","","","","key","j","16.612068965517242","720","250"
"","psychophysics","51","138153","0.0-6.0-0.41","1607","j","","","","","","","","","key","j","16.59375","720","250"
"","psychophysics","52","140779","0.0-6.0-0.42","2619","j","","","","","","","","","key","j","16.643312101910826","720","250"
"","psychophysics","53","143568","0.0-6.0-0.43","2780","f","","","","","","","","","key","f","16.66867469879518","720","250"
"","psychophysics","54","146369","0.0-6.0-0.44","2792","j","","","","","","","","","key","j","16.634730538922156","720","250"
"","psychophysics","55","148205","0.0-6.0-0.45","1826","j","","","","","","","","","key","j","16.605504587155963","720","250"
"","psychophysics","56","150359","0.0-6.0-0.46","2147","j","","","","","","","","","key","j","16.6046511627907","720","250"
"","psychophysics","57","152145","0.0-6.0-0.47","1776","j","","","","","","","","","key","j","16.660377358490567","720","250"
"","psychophysics","58","155162","0.0-6.0-0.48","3008","j","","","","","","","","","key","j","16.67222222222222","720","250"
"","psychophysics","59","157029","0.0-6.0-0.49","1859","f","","","","","","","","","key","f","16.675675675675677","720","250"
"","psychophysics","60","159550","0.0-6.0-0.50","2513","f","","","","","","","","","key","f","16.673333333333332","720","250"
"","psychophysics","61","162205","0.0-6.0-0.51","2647","j","","","","","","","","","key","j","16.651898734177216","720","250"
"","psychophysics","62","163900","0.0-6.0-0.52","1687","f","","","","","","","","","key","f","16.594059405940595","720","250"
"","psychophysics","63","166698","0.0-6.0-0.53","2790","f","","","","","","","","","key","f","16.646706586826348","720","250"
"","psychophysics","64","168644","0.0-6.0-0.54","1939","j","","","","","","","","","key","j","16.67241379310345","720","250"
"","psychophysics","65","171903","0.0-6.0-0.55","3249","j","","","","","","","","","key","j","16.670103092783506","720","250"
"","psychophysics","66","175770","0.0-6.0-0.56","3859","f","","","","","","","","","key","f","16.649350649350648","720","250"
"","psychophysics","67","177869","0.0-6.0-0.57","2093","f","","","","","","","","","key","f","16.624","720","250"
"","psychophysics","68","179970","0.0-6.0-0.58","2097","f","","","","","","","","","key","f","16.648","720","250"
"","psychophysics","69","181886","0.0-6.0-0.59","1903","f","","","","","","","","","key","f","16.614035087719298","720","250"
"","psychophysics","70","184012","0.0-6.0-0.60","2120","f","","","","","","","","","key","f","16.62992125984252","720","250"
"","psychophysics","71","185795","0.0-6.0-0.61","1774","f","","","","","","","","","key","f","16.660377358490567","720","250"
"","psychophysics","72","189718","0.0-6.0-0.62","3916","f","","","","","","","","","key","f","16.67094017094017","720","250"
"","psychophysics","73","193653","0.0-6.0-0.63","3929","j","","","","","","","","","key","j","16.65531914893617","720","250"
"","psychophysics","74","195662","0.0-6.0-0.64","2002","f","","","","","","","","","key","f","16.616666666666667","720","250"
"","psychophysics","75","197147","0.0-6.0-0.65","1475","f","","","","","","","","","key","f","16.670454545454547","720","250"
"","psychophysics","76","198998","0.0-6.0-0.66","1842","j","","","","","","","","","key","j","16.663636363636364","720","250"
"","psychophysics","77","200596","0.0-6.0-0.67","1595","f","","","","","","","","","key","f","16.673684210526314","720","250"
"","psychophysics","78","202097","0.0-6.0-0.68","1492","j","","","","","","","","","key","j","16.662921348314608","720","250"
"","psychophysics","79","206017","0.0-6.0-0.69","3911","j","","","","","","","","","key","j","16.662393162393162","720","250"
"","psychophysics","80","207965","0.0-6.0-0.70","1941","j","","","","","","","","","key","j","16.646551724137932","720","250"
"","psychophysics","81","209657","0.0-6.0-0.71","1680","j","","","","","","","","","key","j","16.673267326732674","720","250"
"","psychophysics","82","211470","0.0-6.0-0.72","1803","f","","","","","","","","","key","f","16.66355140186916","720","250"
"","psychophysics","83","214474","0.0-6.0-0.73","2994","j","","","","","","","","","key","j","16.622222222222224","720","250"
"","psychophysics","84","216726","0.0-6.0-0.74","2245","f","","","","","","","","","key","f","16.66417910447761","720","250"
"","psychophysics","85","219485","0.0-6.0-0.75","2750","f","","","","","","","","","key","f","16.676829268292682","720","250"
"","psychophysics","86","221847","0.0-6.0-0.76","2350","f","","","","","","","","","key","f","16.617021276595743","720","250"
"","psychophysics","87","223392","0.0-6.0-0.77","1538","j","","","","","","","","","key","j","16.66304347826087","720","250"
"","psychophysics","88","224719","0.0-6.0-0.78","1316","f","","","","","","","","","key","f","16.666666666666668","720","250"
"","psychophysics","89","226460","0.0-6.0-0.79","1734","f","","","","","","","","","key","f","16.615384615384617","720","250"
"","psychophysics","90","228328","0.0-6.0-0.80","1857","f","","","","","","","","","key","f","16.666666666666668","720","250"
"","psychophysics","91","230414","0.0-6.0-0.81","2078","f","","","","","","","","","key","f","16.669354838709676","720","250"
"","psychophysics","92","232330","0.0-6.0-0.82","1909","j","","","","","","","","","key","j","16.666666666666668","720","250"
"","psychophysics","93","234302","0.0-6.0-0.83","1962","f","","","","","","","","","key","f","16.64957264957265","720","250"
"","psychophysics","94","235960","0.0-6.0-0.84","1646","f","","","","","","","","","key","f","16.585858585858585","720","250"
"","psychophysics","95","237776","0.0-6.0-0.85","1808","j","","","","","","","","","key","j","16.666666666666668","720","250"
"","psychophysics","96","239665","0.0-6.0-0.86","1881","f","","","","","","","","","key","f","16.669642857142858","720","250"
"","psychophysics","97","242004","0.0-6.0-0.87","2329","f","","","","","","","","","key","f","16.640287769784173","720","250"
"","psychophysics","98","243686","0.0-6.0-0.88","1670","f","","","","","","","","","key","f","16.57","720","250"
"","psychophysics","99","245666","0.0-6.0-0.89","1973","j","","","","","","","","","key","j","16.61864406779661","720","250"
"","psychophysics","100","247595","0.0-6.0-0.90","1913","j","","","","","","","","","key","j","16.62608695652174","720","250"
"","psychophysics","101","248985","0.0-6.0-0.91","1382","f","","","","","","","","","key","f","16.670731707317074","720","250"
"","psychophysics","102","251518","0.0-6.0-0.92","2523","f","","","","","","","","","key","f","16.6158940397351","720","250"
"","psychophysics","103","254340","0.0-6.0-0.93","2815","j","","","","","","","","","key","j","16.62721893491124","720","250"
"","psychophysics","104","256585","0.0-6.0-0.94","2236","j","","","","","","","","","key","j","16.669172932330827","720","250"
