"success","trial_type","trial_index","time_elapsed","internal_node_id","rt","response","subname","question_order","gender","varimages","baseimage","baseimagestr","baseimagestr2","stimulus","response_type","key_press","avg_frame_time","center_x","center_y"
"true","fullscreen","0","7945","0.0-0.0","","","","","","","","","","","","","","",""
"","survey-text","1","184802","0.0-1.0","175975","{""name"":""Yi""}","Yi","","","","","","","","","","","",""
"","survey-multi-choice","2","188380","0.0-2.0","3577","{""gender"":""Female""}","","[0]","Female","[{""firstImage"":""stimuli/Female/rcic_base_1_00001_inv.png"",""secondImage"":""stimuli/Female/rcic_base_1_00001_ori.png""},{""firstImage"":""stimuli/Female/rcic_base_1_00002_inv.png"",""secondImage"":""stimuli/Female/rcic_base_1_00002_ori.png""},{""firstImage"":""stimuli/Female/rcic_base_1_00003_inv.png"",""secondImage"":""stimuli/Female/rcic_base_1_00003_ori.png""},{""firstImage"":""stimuli/Female/rcic_base_1_00004_inv.png"",""secondImage"":""stimuli/Female/rcic_base_1_00004_ori.png""},{""firstImage"":""stimuli/Female/rcic_base_1_00005_inv.png"",""secondImage"":""stimuli/Female/rcic_base_1_00005_ori.png""},{""firstImage"":""stimuli/Female/rcic_base_1_00006_inv.png"",""secondImage"":""stimuli/Female/rcic_base_1_00006_ori.png""},{""firstImage"":""stimuli/Female/rcic_base_1_00007_inv.png"",""secondImage"":""stimuli/Female/rcic_base_1_00007_ori.png""},{""firstImage"":""stimuli/Female/rcic_base_1_00008_inv.png"",""secondImage"":""stimuli/Female/rcic_base_1_00008_ori.png""},{""firstImage"":""stimuli/Female/rcic_base_1_00009_inv.png"",""secondImage"":""stimuli/Female/rcic_base_1_00009_ori.png""},{""firstImage"":""stimuli/Female/rcic_base_1_00010_inv.png"",""secondImage"":""stimuli/Female/rcic_base_1_00010_ori.png""},{""firstImage"":""stimuli/Female/rcic_base_1_00011_inv.png"",""secondImage"":""stimuli/Female/rcic_base_1_00011_ori.png""},{""firstImage"":""stimuli/Female/rcic_base_1_00012_inv.png"",""secondImage"":""stimuli/Female/rcic_base_1_00012_ori.png""},{""firstImage"":""stimuli/Female/rcic_base_1_00013_inv.png"",""secondImage"":""stimuli/Female/rcic_base_1_00013_ori.png""},{""firstImage"":""stimuli/Female/rcic_base_1_00014_inv.png"",""secondImage"":""stimuli/Female/rcic_base_1_00014_ori.png""},{""firstImage"":""stimuli/Female/rcic_base_1_00015_inv.png"",""secondImage"":""stimuli/Female/rcic_base_1_00015_ori.png""},{""firstImage"":""stimuli/Female/rcic_base_1_00016_inv.png"",""secondImage"":""stimuli/Female/rcic_base_1_00016_ori.png""},{""firstImage"":""stimuli/Female/rcic_base_1_00017_inv.png"",""secondImage"":""stimuli/Female/rcic_base_1_00017_ori.png""},{""firstImage"":""stimuli/Female/rcic_base_1_00018_inv.png"",""secondImage"":""stimuli/Female/rcic_base_1_00018_ori.png""},{""firstImage"":""stimuli/Female/rcic_base_1_00019_inv.png"",""secondImage"":""stimuli/Female/rcic_base_1_00019_ori.png""},{""firstImage"":""stimuli/Female/rcic_base_1_00020_inv.png"",""secondImage"":""stimuli/Female/rcic_base_1_00020_ori.png""},{""firstImage"":""stimuli/Female/rcic_base_1_00021_inv.png"",""secondImage"":""stimuli/Female/rcic_base_1_00021_ori.png""},{""firstImage"":""stimuli/Female/rcic_base_1_00022_inv.png"",""secondImage"":""stimuli/Female/rcic_base_1_00022_ori.png""},{""firstImage"":""stimuli/Female/rcic_base_1_00023_inv.png"",""secondImage"":""stimuli/Female/rcic_base_1_00023_ori.png""},{""firstImage"":""stimuli/Female/rcic_base_1_00024_inv.png"",""secondImage"":""stimuli/Female/rcic_base_1_00024_ori.png""},{""firstImage"":""stimuli/Female/rcic_base_1_00025_inv.png"",""secondImage"":""stimuli/Female/rcic_base_1_00025_ori.png""},{""firstImage"":""stimuli/Female/rcic_base_1_00026_inv.png"",""secondImage"":""stimuli/Female/rcic_base_1_00026_ori.png""},{""firstImage"":""stimuli/Female/rcic_base_1_00027_inv.png"",""secondImage"":""stimuli/Female/rcic_base_1_00027_ori.png""},{""firstImage"":""stimuli/Female/rcic_base_1_00028_inv.png"",""secondImage"":""stimuli/Female/rcic_base_1_00028_ori.png""},{""firstImage"":""stimuli/Female/rcic_base_1_00029_inv.png"",""secondImage"":""stimuli/Female/rcic_base_1_00029_ori.png""},{""firstImage"":""stimuli/Female/rcic_base_1_00030_inv.png"",""secondImage"":""stimuli/Female/rcic_base_1_00030_ori.png""},{""firstImage"":""stimuli/Female/rcic_base_1_00031_inv.png"",""secondImage"":""stimuli/Female/rcic_base_1_00031_ori.png""},{""firstImage"":""stimuli/Female/rcic_base_1_00032_inv.png"",""secondImage"":""stimuli/Female/rcic_base_1_00032_ori.png""},{""firstImage"":""stimuli/Female/rcic_base_1_00033_inv.png"",""secondImage"":""stimuli/Female/rcic_base_1_00033_ori.png""},{""firstImage"":""stimuli/Female/rcic_base_1_00034_inv.png"",""secondImage"":""stimuli/Female/rcic_base_1_00034_ori.png""},{""firstImage"":""stimuli/Female/rcic_base_1_00035_inv.png"",""secondImage"":""stimuli/Female/rcic_base_1_00035_ori.png""},{""firstImage"":""stimuli/Female/rcic_base_1_00036_inv.png"",""secondImage"":""stimuli/Female/rcic_base_1_00036_ori.png""},{""firstImage"":""stimuli/Female/rcic_base_1_00037_inv.png"",""secondImage"":""stimuli/Female/rcic_base_1_00037_ori.png""},{""firstImage"":""stimuli/Female/rcic_base_1_00038_inv.png"",""secondImage"":""stimuli/Female/rcic_base_1_00038_ori.png""},{""firstImage"":""stimuli/Female/rcic_base_1_00039_inv.png"",""secondImage"":""stimuli/Female/rcic_base_1_00039_ori.png""},{""firstImage"":""stimuli/Female/rcic_base_1_00040_inv.png"",""secondImage"":""stimuli/Female/rcic_base_1_00040_ori.png""},{""firstImage"":""stimuli/Female/rcic_base_1_00041_inv.png"",""secondImage"":""stimuli/Female/rcic_base_1_00041_ori.png""},{""firstImage"":""stimuli/Female/rcic_base_1_00042_inv.png"",""secondImage"":""stimuli/Female/rcic_base_1_00042_ori.png""},{""firstImage"":""stimuli/Female/rcic_base_1_00043_inv.png"",""secondImage"":""stimuli/Female/rcic_base_1_00043_ori.png""},{""firstImage"":""stimuli/Female/rcic_base_1_00044_inv.png"",""secondImage"":""stimuli/Female/rcic_base_1_00044_ori.png""},{""firstImage"":""stimuli/Female/rcic_base_1_00045_inv.png"",""secondImage"":""stimuli/Female/rcic_base_1_00045_ori.png""},{""firstImage"":""stimuli/Female/rcic_base_1_00046_inv.png"",""secondImage"":""stimuli/Female/rcic_base_1_00046_ori.png""},{""firstImage"":""stimuli/Female/rcic_base_1_00047_inv.png"",""secondImage"":""stimuli/Female/rcic_base_1_00047_ori.png""},{""firstImage"":""stimuli/Female/rcic_base_1_00048_inv.png"",""secondImage"":""stimuli/Female/rcic_base_1_00048_ori.png""},{""firstImage"":""stimuli/Female/rcic_base_1_00049_inv.png"",""secondImage"":""stimuli/Female/rcic_base_1_00049_ori.png""},{""firstImage"":""stimuli/Female/rcic_base_1_00050_inv.png"",""secondImage"":""stimuli/Female/rcic_base_1_00050_ori.png""},{""firstImage"":""stimuli/Female/rcic_base_1_00051_inv.png"",""secondImage"":""stimuli/Female/rcic_base_1_00051_ori.png""},{""firstImage"":""stimuli/Female/rcic_base_1_00052_inv.png"",""secondImage"":""stimuli/Female/rcic_base_1_00052_ori.png""},{""firstImage"":""stimuli/Female/rcic_base_1_00053_inv.png"",""secondImage"":""stimuli/Female/rcic_base_1_00053_ori.png""},{""firstImage"":""stimuli/Female/rcic_base_1_00054_inv.png"",""secondImage"":""stimuli/Female/rcic_base_1_00054_ori.png""},{""firstImage"":""stimuli/Female/rcic_base_1_00055_inv.png"",""secondImage"":""stimuli/Female/rcic_base_1_00055_ori.png""},{""firstImage"":""stimuli/Female/rcic_base_1_00056_inv.png"",""secondImage"":""stimuli/Female/rcic_base_1_00056_ori.png""},{""firstImage"":""stimuli/Female/rcic_base_1_00057_inv.png"",""secondImage"":""stimuli/Female/rcic_base_1_00057_ori.png""},{""firstImage"":""stimuli/Female/rcic_base_1_00058_inv.png"",""secondImage"":""stimuli/Female/rcic_base_1_00058_ori.png""},{""firstImage"":""stimuli/Female/rcic_base_1_00059_inv.png"",""secondImage"":""stimuli/Female/rcic_base_1_00059_ori.png""},{""firstImage"":""stimuli/Female/rcic_base_1_00060_inv.png"",""secondImage"":""stimuli/Female/rcic_base_1_00060_ori.png""},{""firstImage"":""stimuli/Female/rcic_base_1_00061_inv.png"",""secondImage"":""stimuli/Female/rcic_base_1_00061_ori.png""},{""firstImage"":""stimuli/Female/rcic_base_1_00062_inv.png"",""secondImage"":""stimuli/Female/rcic_base_1_00062_ori.png""},{""firstImage"":""stimuli/Female/rcic_base_1_00063_inv.png"",""secondImage"":""stimuli/Female/rcic_base_1_00063_ori.png""},{""firstImage"":""stimuli/Female/rcic_base_1_00064_inv.png"",""secondImage"":""stimuli/Female/rcic_base_1_00064_ori.png""},{""firstImage"":""stimuli/Female/rcic_base_1_00065_inv.png"",""secondImage"":""stimuli/Female/rcic_base_1_00065_ori.png""},{""firstImage"":""stimuli/Female/rcic_base_1_00066_inv.png"",""secondImage"":""stimuli/Female/rcic_base_1_00066_ori.png""},{""firstImage"":""stimuli/Female/rcic_base_1_00067_inv.png"",""secondImage"":""stimuli/Female/rcic_base_1_00067_ori.png""},{""firstImage"":""stimuli/Female/rcic_base_1_00068_inv.png"",""secondImage"":""stimuli/Female/rcic_base_1_00068_ori.png""},{""firstImage"":""stimuli/Female/rcic_base_1_00069_inv.png"",""secondImage"":""stimuli/Female/rcic_base_1_00069_ori.png""},{""firstImage"":""stimuli/Female/rcic_base_1_00070_inv.png"",""secondImage"":""stimuli/Female/rcic_base_1_00070_ori.png""},{""firstImage"":""stimuli/Female/rcic_base_1_00071_inv.png"",""secondImage"":""stimuli/Female/rcic_base_1_00071_ori.png""},{""firstImage"":""stimuli/Female/rcic_base_1_00072_inv.png"",""secondImage"":""stimuli/Female/rcic_base_1_00072_ori.png""},{""firstImage"":""stimuli/Female/rcic_base_1_00073_inv.png"",""secondImage"":""stimuli/Female/rcic_base_1_00073_ori.png""},{""firstImage"":""stimuli/Female/rcic_base_1_00074_inv.png"",""secondImage"":""stimuli/Female/rcic_base_1_00074_ori.png""},{""firstImage"":""stimuli/Female/rcic_base_1_00075_inv.png"",""secondImage"":""stimuli/Female/rcic_base_1_00075_ori.png""},{""firstImage"":""stimuli/Female/rcic_base_1_00076_inv.png"",""secondImage"":""stimuli/Female/rcic_base_1_00076_ori.png""},{""firstImage"":""stimuli/Female/rcic_base_1_00077_inv.png"",""secondImage"":""stimuli/Female/rcic_base_1_00077_ori.png""},{""firstImage"":""stimuli/Female/rcic_base_1_00078_inv.png"",""secondImage"":""stimuli/Female/rcic_base_1_00078_ori.png""},{""firstImage"":""stimuli/Female/rcic_base_1_00079_inv.png"",""secondImage"":""stimuli/Female/rcic_base_1_00079_ori.png""},{""firstImage"":""stimuli/Female/rcic_base_1_00080_inv.png"",""secondImage"":""stimuli/Female/rcic_base_1_00080_ori.png""},{""firstImage"":""stimuli/Female/rcic_base_1_00081_inv.png"",""secondImage"":""stimuli/Female/rcic_base_1_00081_ori.png""},{""firstImage"":""stimuli/Female/rcic_base_1_00082_inv.png"",""secondImage"":""stimuli/Female/rcic_base_1_00082_ori.png""},{""firstImage"":""stimuli/Female/rcic_base_1_00083_inv.png"",""secondImage"":""stimuli/Female/rcic_base_1_00083_ori.png""},{""firstImage"":""stimuli/Female/rcic_base_1_00084_inv.png"",""secondImage"":""stimuli/Female/rcic_base_1_00084_ori.png""},{""firstImage"":""stimuli/Female/rcic_base_1_00085_inv.png"",""secondImage"":""stimuli/Female/rcic_base_1_00085_ori.png""},{""firstImage"":""stimuli/Female/rcic_base_1_00086_inv.png"",""secondImage"":""stimuli/Female/rcic_base_1_00086_ori.png""},{""firstImage"":""stimuli/Female/rcic_base_1_00087_inv.png"",""secondImage"":""stimuli/Female/rcic_base_1_00087_ori.png""},{""firstImage"":""stimuli/Female/rcic_base_1_00088_inv.png"",""secondImage"":""stimuli/Female/rcic_base_1_00088_ori.png""},{""firstImage"":""stimuli/Female/rcic_base_1_00089_inv.png"",""secondImage"":""stimuli/Female/rcic_base_1_00089_ori.png""},{""firstImage"":""stimuli/Female/rcic_base_1_00090_inv.png"",""secondImage"":""stimuli/Female/rcic_base_1_00090_ori.png""},{""firstImage"":""stimuli/Female/rcic_base_1_00091_inv.png"",""secondImage"":""stimuli/Female/rcic_base_1_00091_ori.png""},{""firstImage"":""stimuli/Female/rcic_base_1_00092_inv.png"",""secondImage"":""stimuli/Female/rcic_base_1_00092_ori.png""},{""firstImage"":""stimuli/Female/rcic_base_1_00093_inv.png"",""secondImage"":""stimuli/Female/rcic_base_1_00093_ori.png""},{""firstImage"":""stimuli/Female/rcic_base_1_00094_inv.png"",""secondImage"":""stimuli/Female/rcic_base_1_00094_ori.png""},{""firstImage"":""stimuli/Female/rcic_base_1_00095_inv.png"",""secondImage"":""stimuli/Female/rcic_base_1_00095_ori.png""},{""firstImage"":""stimuli/Female/rcic_base_1_00096_inv.png"",""secondImage"":""stimuli/Female/rcic_base_1_00096_ori.png""},{""firstImage"":""stimuli/Female/rcic_base_1_00097_inv.png"",""secondImage"":""stimuli/Female/rcic_base_1_00097_ori.png""},{""firstImage"":""stimuli/Female/rcic_base_1_00098_inv.png"",""secondImage"":""stimuli/Female/rcic_base_1_00098_ori.png""},{""firstImage"":""stimuli/Female/rcic_base_1_00099_inv.png"",""secondImage"":""stimuli/Female/rcic_base_1_00099_ori.png""},{""firstImage"":""stimuli/Female/rcic_base_1_00100_inv.png"",""secondImage"":""stimuli/Female/rcic_base_1_00100_ori.png""}]","base_image/base_Female.png","<p>Imagine this is your romantic partner, please remember this face. </p><div class='center'><img src='base_image/base_Female.png' align='middle'></img><p class='small'><strong>In each trial, two faces will show up, please select the one that looks like your partner the most.</strong></p></div><p>Press <strong>F</strong> to choose the left image, Press <strong>J</strong> to choose the right image</p><p>We have <strong>5 practice trials</strong> for you to get familiar with the task. Press start to proceed when you are ready.</p>","<p>Great, now you know the rule! This is a memory test, <strong>please remember your partner's face carefully, this image will not be shown again.</strong></p><div class='center'><img src='base_image/base_Female.png' align='middle'></img><p class='small'>For this pilot study, we have 100 trials, we really appreciate your time in doing this, it will take about 10 minutes. </p></div><p>Press <strong>F</strong> to choose the left image, Press <strong>J</strong> to choose the right image</p><p>Press start when you are ready.</p>","","","","","",""
"","html-button-response","3","199123","0.0-3.0","10180","0","","","","","","","","<p>Imagine this is your romantic partner, please remember this face. </p><div class='center'><img src='base_image/base_Female.png' align='middle'></img><p class='small'><strong>In each trial, two faces will show up, please select the one that looks like your partner the most.</strong></p></div><p>Press <strong>F</strong> to choose the left image, Press <strong>J</strong> to choose the right image</p><p>We have <strong>5 practice trials</strong> for you to get familiar with the task. Press start to proceed when you are ready.</p>","","","","",""
"","psychophysics","4","205838","0.0-4.0-0.0","6702","f","","","","","","","","","key","f","33.335","720","250"
"","psychophysics","5","210371","0.0-4.0-0.1","4524","j","","","","","","","","","key","j","33.32592592592592","720","250"
"","psychophysics","6","214725","0.0-4.0-0.2","4345","j","","","","","","","","","key","j","33.33076923076923","720","250"
"","psychophysics","7","222292","0.0-4.0-0.3","7559","j","","","","","","","","","key","j","33.33185840707964","720","250"
"","psychophysics","8","225242","0.0-4.0-0.4","2943","j","","","","","","","","","key","j","33.333333333333336","720","250"
"","html-button-response","9","239726","0.0-5.0","14476","0","","","","","","","","<p>Great, now you know the rule! This is a memory test, <strong>please remember your partner's face carefully, this image will not be shown again.</strong></p><div class='center'><img src='base_image/base_Female.png' align='middle'></img><p class='small'>For this pilot study, we have 100 trials, we really appreciate your time in doing this, it will take about 10 minutes. </p></div><p>Press <strong>F</strong> to choose the left image, Press <strong>J</strong> to choose the right image</p><p>Press start when you are ready.</p>","","","","",""
"","psychophysics","10","252747","0.0-6.0-0.0","13015","j","","","","","","","","","key","j","33.32820512820513","720","250"
"","psychophysics","11","255323","0.0-6.0-0.1","2568","f","","","","","","","","","key","f","33.31578947368421","720","250"
"","psychophysics","12","257544","0.0-6.0-0.2","2213","f","","","","","","","","","key","f","33.303030303030305","720","250"
"","psychophysics","13","259652","0.0-6.0-0.3","2101","f","","","","","","","","","key","f","33.33870967741935","720","250"
"","psychophysics","14","262949","0.0-6.0-0.4","3291","f","","","","","","","","","key","f","33.3469387755102","720","250"
"","psychophysics","15","273063","0.0-6.0-0.5","10102","f","","","","","","","","","key","f","33.33443708609271","720","250"
"","psychophysics","16","275036","0.0-6.0-0.6","1965","j","","","","","","","","","key","j","33.186440677966104","720","250"
"","psychophysics","17","276953","0.0-6.0-0.7","1906","f","","","","","","","","","key","f","33.339285714285715","720","250"
"","psychophysics","18","279891","0.0-6.0-0.8","2928","j","","","","","","","","","key","j","33.32183908045977","720","250"
"","psychophysics","19","294568","0.0-6.0-0.9","14669","f","","","","","","","","","key","f","33.32727272727273","720","250"
"","psychophysics","20","306869","0.0-6.0-0.10","12291","j","","","","","","","","","key","j","33.33152173913044","720","250"
"","psychophysics","21","309640","0.0-6.0-0.11","2762","f","","","","","","","","","key","f","33.31707317073171","720","250"
"","psychophysics","22","312954","0.0-6.0-0.12","3304","f","","","","","","","","","key","f","33.326530612244895","720","250"
"","psychophysics","23","315063","0.0-6.0-0.13","2101","f","","","","","","","","","key","f","33.32258064516129","720","250"
"","psychophysics","24","317037","0.0-6.0-0.14","1966","f","","","","","","","","","key","f","33.220338983050844","720","250"
"","psychophysics","25","318950","0.0-6.0-0.15","1904","f","","","","","","","","","key","f","33.339285714285715","720","250"
"","psychophysics","26","322691","0.0-6.0-0.16","3733","j","","","","","","","","","key","j","33.34234234234234","720","250"
"","psychophysics","27","325390","0.0-6.0-0.17","2690","f","","","","","","","","","key","f","33.2875","720","250"
"","psychophysics","28","327530","0.0-6.0-0.18","2128","j","","","","","","","","","key","j","33.25396825396825","720","250"
"","psychophysics","29","330270","0.0-6.0-0.19","2731","f","","","","","","","","","key","f","33.21951219512195","720","250"
"","psychophysics","30","332186","0.0-6.0-0.20","1908","j","","","","","","","","","key","j","33.357142857142854","720","250"
"","psychophysics","31","335883","0.0-6.0-0.21","3687","f","","","","","","","","","key","f","33.336363636363636","720","250"
"","psychophysics","32","337469","0.0-6.0-0.22","1578","j","","","","","","","","","key","j","33.340425531914896","720","250"
"","psychophysics","33","341002","0.0-6.0-0.23","3525","j","","","","","","","","","key","j","33.34285714285714","720","250"
"","psychophysics","34","345096","0.0-6.0-0.24","4082","j","","","","","","","","","key","j","33.33057851239669","720","250"
"","psychophysics","35","349113","0.0-6.0-0.25","4008","f","","","","","","","","","key","f","33.266666666666666","720","250"
"","psychophysics","36","350355","0.0-6.0-0.26","1230","j","","","","","","","","","key","j","33.361111111111114","720","250"
"","psychophysics","37","352972","0.0-6.0-0.27","2606","j","","","","","","","","","key","j","33.294871794871796","720","250"
"","psychophysics","38","354501","0.0-6.0-0.28","1518","f","","","","","","","","","key","f","33.333333333333336","720","250"
"","psychophysics","39","356789","0.0-6.0-0.29","2279","j","","","","","","","","","key","j","33.32835820895522","720","250"
"","psychophysics","40","359235","0.0-6.0-0.30","2438","j","","","","","","","","","key","j","33.28767123287671","720","250"
"","psychophysics","41","361585","0.0-6.0-0.31","2338","f","","","","","","","","","key","f","33.34782608695652","720","250"
"","psychophysics","42","364112","0.0-6.0-0.32","2518","j","","","","","","","","","key","j","33.346666666666664","720","250"
"","psychophysics","43","369918","0.0-6.0-0.33","5797","j","","","","","","","","","key","j","33.335260115606935","720","250"
"","psychophysics","44","376789","0.0-6.0-0.34","6861","f","","","","","","","","","key","f","33.33658536585366","720","250"
"","psychophysics","45","381005","0.0-6.0-0.35","4207","f","","","","","","","","","key","f","33.317460317460316","720","250"
"","psychophysics","46","383313","0.0-6.0-0.36","2299","j","","","","","","","","","key","j","33.3235294117647","720","250"
"","psychophysics","47","384840","0.0-6.0-0.37","1517","j","","","","","","","","","key","j","33.333333333333336","720","250"
"","psychophysics","48","386953","0.0-6.0-0.38","2104","j","","","","","","","","","key","j","33.32258064516129","720","250"
"","psychophysics","49","388703","0.0-6.0-0.39","1742","j","","","","","","","","","key","j","33.34615384615385","720","250"
"","psychophysics","50","390550","0.0-6.0-0.40","1839","j","","","","","","","","","key","j","33.333333333333336","720","250"
"","psychophysics","51","392036","0.0-6.0-0.41","1479","j","","","","","","","","","key","j","33.31818181818182","720","250"
"","psychophysics","52","393375","0.0-6.0-0.42","1327","j","","","","","","","","","key","j","33.333333333333336","720","250"
"","psychophysics","53","395940","0.0-6.0-0.43","2555","j","","","","","","","","","key","j","33.3421052631579","720","250"
"","psychophysics","54","397727","0.0-6.0-0.44","1778","f","","","","","","","","","key","f","33.32692307692308","720","250"
"","psychophysics","55","401205","0.0-6.0-0.45","3469","j","","","","","","","","","key","j","33.25961538461539","720","250"
"","psychophysics","56","404118","0.0-6.0-0.46","2901","f","","","","","","","","","key","f","33.33720930232558","720","250"
"","psychophysics","57","407416","0.0-6.0-0.47","3289","j","","","","","","","","","key","j","33.3469387755102","720","250"
"","psychophysics","58","408912","0.0-6.0-0.48","1488","j","","","","","","","","","key","j","33.31818181818182","720","250"
"","psychophysics","59","411540","0.0-6.0-0.49","2617","j","","","","","","","","","key","j","33.34615384615385","720","250"
"","psychophysics","60","413179","0.0-6.0-0.50","1630","f","","","","","","","","","key","f","33.3125","720","250"
"","psychophysics","61","414669","0.0-6.0-0.51","1481","j","","","","","","","","","key","j","33.34090909090909","720","250"
"","psychophysics","62","416049","0.0-6.0-0.52","1368","f","","","","","","","","","key","f","33.325","720","250"
"","psychophysics","63","418168","0.0-6.0-0.53","2109","f","","","","","","","","","key","f","33.333333333333336","720","250"
"","psychophysics","64","421678","0.0-6.0-0.54","3501","f","","","","","","","","","key","f","33.33653846153846","720","250"
"","psychophysics","65","423489","0.0-6.0-0.55","1801","j","","","","","","","","","key","j","33.339622641509436","720","250"
"","psychophysics","66","424680","0.0-6.0-0.56","1180","f","","","","","","","","","key","f","33.2","720","250"
"","psychophysics","67","426104","0.0-6.0-0.57","1415","j","","","","","","","","","key","j","33.30952380952381","720","250"
"","psychophysics","68","428875","0.0-6.0-0.58","2761","f","","","","","","","","","key","f","33.329268292682926","720","250"
"","psychophysics","69","431604","0.0-6.0-0.59","2720","j","","","","","","","","","key","j","33.333333333333336","720","250"
"","psychophysics","70","434226","0.0-6.0-0.60","2614","j","","","","","","","","","key","j","33.33766233766234","720","250"
"","psychophysics","71","436449","0.0-6.0-0.61","2215","j","","","","","","","","","key","j","33.24242424242424","720","250"
"","psychophysics","72","438458","0.0-6.0-0.62","1999","j","","","","","","","","","key","j","33.33898305084746","720","250"
"","psychophysics","73","440989","0.0-6.0-0.63","2522","j","","","","","","","","","key","j","33.266666666666666","720","250"
"","psychophysics","74","442628","0.0-6.0-0.64","1630","f","","","","","","","","","key","f","33.291666666666664","720","250"
"","psychophysics","75","444398","0.0-6.0-0.65","1759","j","","","","","","","","","key","j","33.13461538461539","720","250"
"","psychophysics","76","447823","0.0-6.0-0.66","3418","j","","","","","","","","","key","j","33.23529411764706","720","250"
"","psychophysics","77","449335","0.0-6.0-0.67","1503","f","","","","","","","","","key","f","33.31111111111111","720","250"
"","psychophysics","78","453246","0.0-6.0-0.68","3902","j","","","","","","","","","key","j","33.3448275862069","720","250"
"","psychophysics","79","454724","0.0-6.0-0.69","1467","f","","","","","","","","","key","f","33.325581395348834","720","250"
"","psychophysics","80","456996","0.0-6.0-0.70","2263","f","","","","","","","","","key","f","33.25373134328358","720","250"
"","psychophysics","81","458960","0.0-6.0-0.71","1956","f","","","","","","","","","key","f","33.189655172413794","720","250"
"","psychophysics","82","460900","0.0-6.0-0.72","1931","f","","","","","","","","","key","f","33.206896551724135","720","250"
"","psychophysics","83","463829","0.0-6.0-0.73","2917","f","","","","","","","","","key","f","33.33720930232558","720","250"
"","psychophysics","84","465637","0.0-6.0-0.74","1800","f","","","","","","","","","key","f","33.2037037037037","720","250"
"","psychophysics","85","467290","0.0-6.0-0.75","1642","f","","","","","","","","","key","f","33.3125","720","250"
"","psychophysics","86","469261","0.0-6.0-0.76","1961","f","","","","","","","","","key","f","33.275862068965516","720","250"
"","psychophysics","87","472193","0.0-6.0-0.77","2920","f","","","","","","","","","key","f","33.229885057471265","720","250"
"","psychophysics","88","474406","0.0-6.0-0.78","2203","f","","","","","","","","","key","f","33.24242424242424","720","250"
"","psychophysics","89","475799","0.0-6.0-0.79","1384","j","","","","","","","","","key","j","33.31707317073171","720","250"
"","psychophysics","90","478316","0.0-6.0-0.80","2507","j","","","","","","","","","key","j","33.33783783783784","720","250"
"","psychophysics","91","480877","0.0-6.0-0.81","2553","j","","","","","","","","","key","j","33.3421052631579","720","250"
"","psychophysics","92","484346","0.0-6.0-0.82","3460","f","","","","","","","","","key","f","33.33009708737864","720","250"
"","psychophysics","93","486589","0.0-6.0-0.83","2234","j","","","","","","","","","key","j","33.333333333333336","720","250"
"","psychophysics","94","488556","0.0-6.0-0.84","1959","j","","","","","","","","","key","j","33.293103448275865","720","250"
"","psychophysics","95","490425","0.0-6.0-0.85","1862","j","","","","","","","","","key","j","33.30909090909091","720","250"
"","psychophysics","96","492213","0.0-6.0-0.86","1779","f","","","","","","","","","key","f","33.264150943396224","720","250"
"","psychophysics","97","493529","0.0-6.0-0.87","1307","j","","","","","","","","","key","j","33.31578947368421","720","250"
"","psychophysics","98","495079","0.0-6.0-0.88","1541","j","","","","","","","","","key","j","33.130434782608695","720","250"
"","psychophysics","99","496393","0.0-6.0-0.89","1302","j","","","","","","","","","key","j","33.31578947368421","720","250"
"","psychophysics","100","497725","0.0-6.0-0.90","1323","f","","","","","","","","","key","f","33.17948717948718","720","250"
"","psychophysics","101","500422","0.0-6.0-0.91","2690","j","","","","","","","","","key","j","33.2625","720","250"
"","psychophysics","102","503350","0.0-6.0-0.92","2919","j","","","","","","","","","key","j","33.298850574712645","720","250"
"","psychophysics","103","505672","0.0-6.0-0.93","2314","j","","","","","","","","","key","j","33.34782608695652","720","250"
"","psychophysics","104","506996","0.0-6.0-0.94","1315","f","","","","","","","","","key","f","33.31578947368421","720","250"
